UserID	Experiment	SessionNum	Trial	Date	Question	Answer	Response	RT	LenScore	LenAcc	StrictAcc	actor	TrialType	Feedback	DurationControl	Group	Phase	Condition
A2HC9549CZAKNN	fajci1	1	ExtraInfo_Demographics	2018-04-16 02:59:43	9.467	Female	40	-select level-	Fluent	USA
A2HC9549CZAKNN	fajci1	1	1	2018-04-16 03:01:59	<iframe width="560" height="315" src="https://www.youtube.com/embed/ERsGUjht038?rel=0&amp;showinfo=0" frameborder="0" allow="autoplay; encrypted-media" allowfullscreen></iframe>	na		124.16	0	0	0	rachel	EmbededVideo	NoFeedback	UserTiming	A	watchingVideo	disfluent	
A2HC9549CZAKNN	fajci1	1	2	2018-04-16 03:02:12	Where is Alicia from?	Massachusetts	united states	11.807	23.076923076923	0	0	rachel	test	NoFeedback	UserTiming	B	Restudy	disfluent	
A2HC9549CZAKNN	fajci1	1	3	2018-04-16 03:02:21	Where does Alicia go to college?	Duke	not sure	8.869	33.333333333333	0	0	rachel	test	NoFeedback	UserTiming	B	Restudy	disfluent	
A2HC9549CZAKNN	fajci1	1	4	2018-04-16 03:02:41	Name two activities Alicia participates in at college	debate team and mock trial	mock trial, debate	19.388	45.454545454545	0	0	rachel	test	NoFeedback	UserTiming	B	Restudy	disfluent	
A2HC9549CZAKNN	fajci1	1	5	2018-04-16 03:05:48	<iframe width="560" height="315" src="https://www.youtube.com/embed/6uVaYM2KCuk?rel=0&amp;showinfo=0" frameborder="0" allow="autoplay; encrypted-media" allowfullscreen></iframe>	na		185.983	0	0	0	ashish	EmbededVideo	NoFeedback	UserTiming	A	watchingVideo	fluent	
A2HC9549CZAKNN	fajci1	1	6	2018-04-16 03:05:54	Where is Rohan from?	Oakland	oakland california	6.121	56	0	0	rohan	test	NoFeedback	UserTiming	B	Restudy	fluent	
A2HC9549CZAKNN	fajci1	1	7	2018-04-16 03:06:04	Where did Rohan attend college?	Carnegie Mellon	carnegie mellon	9.268	100	1	1	rohan	test	NoFeedback	UserTiming	B	Restudy	fluent	
A2HC9549CZAKNN	fajci1	1	8	2018-04-16 03:06:13	What were Rohan’s majors in college?	Political Science and Communications	political science and communication	8.268	98.591549295775	1	0	rohan	test	NoFeedback	UserTiming	B	Restudy	fluent	
A2HC9549CZAKNN	fajci1	1	9	2018-04-16 03:08:12	<iframe width="560" height="315" src="https://www.youtube.com/embed/XCVQ7-Vde8c?rel=0&amp;showinfo=0" frameborder="0" allow="autoplay; encrypted-media" allowfullscreen></iframe>	na		118.797	0	0	0	isabella	EmbededVideo	NoFeedback	UserTiming	A	watchingVideo	fluent	
A2HC9549CZAKNN	fajci1	1	10	2018-04-16 03:08:20	Where does Alice attend college?	University of Pennsylvania	u penn	7.172	37.5	0	0	isabella	test	NoFeedback	UserTiming	B	Restudy	fluent	
A2HC9549CZAKNN	fajci1	1	11	2018-04-16 03:08:35	What is Alice’s major?	Science, Technology, and Society	communication and society	14.762	52.631578947368	0	0	isabella	test	NoFeedback	UserTiming	B	Restudy	fluent	
A2HC9549CZAKNN	fajci1	1	12	2018-04-16 03:08:39	Where is Alice from?	Maine	maine	3.917	100	1	1	isabella	test	NoFeedback	UserTiming	B	Restudy	fluent	
A2HC9549CZAKNN	fajci1	1	13	2018-04-16 03:11:24	<iframe width="560" height="315" src="https://www.youtube.com/embed/tV2O8tek-nU?rel=0&amp;showinfo=0" frameborder="0" allow="autoplay; encrypted-media" allowfullscreen></iframe>	na		162.304	0	0	0	shaun	EmbededVideo	NoFeedback	UserTiming	A	watchingVideo	disfluent	
A2HC9549CZAKNN	fajci1	1	14	2018-04-16 03:11:30	Where was Lanre born?	Wisconsin	united states	5.841	18.181818181818	0	0	shaun	test	NoFeedback	UserTiming	B	Restudy	disfluent	
A2HC9549CZAKNN	fajci1	1	15	2018-04-16 03:11:35	What college does Lanre attend?	Princeton	princeton	4.359	100	1	1	shaun	test	NoFeedback	UserTiming	B	Restudy	disfluent	
A2HC9549CZAKNN	fajci1	1	16	2018-04-16 03:12:16	Where did Lanre intern last summer?	ACLU	aclu	40.282	100	1	1	shaun	test	NoFeedback	UserTiming	B	Restudy	disfluent	
A2HC9549CZAKNN	fajci1	1	17	2018-04-16 03:12:19				3.235	0	0	1		StepOut	NA	NA	soStudy.html	NA	
A2HC9549CZAKNN	fajci1	1	18	2018-04-16 03:12:33	Alicia	na	3	13.321	0	0	0	rachel	JOL	NoFeedback	UserTiming	C	Ranking	disfluent	
A2HC9549CZAKNN	fajci1	1	19	2018-04-16 03:12:37	Rohan	na	1	3.364	0	0	0	ashish	JOL	NoFeedback	UserTiming	C	Ranking	fluent	
A2HC9549CZAKNN	fajci1	1	20	2018-04-16 03:12:41	Alice	na	2	3.327	0	0	0	isabella	JOL	NoFeedback	UserTiming	C	Ranking	fluent	
A2HC9549CZAKNN	fajci1	1	21	2018-04-16 03:12:44	Lanre	na	4	2.768	0	0	0	shaun	JOL	NoFeedback	UserTiming	C	Ranking	disfluent	
A2HC9549CZAKNN	fajci1	1	22	2018-04-16 03:12:47				2.715	0	0	1		StepOut	NA	NA	soTest.html	NA	
A2HC9549CZAKNN	fajci1	1	23	2018-04-16 03:13:21	Alicia	na		33.791	0	0	0	rachel	pleasantness	NoFeedback	UserTiming	C	likeRanking	disfluent	
A2HC9549CZAKNN	fajci1	1	24	2018-04-16 03:13:28	Rohan	na	3	6.8	0	0	0	ashish	pleasantness	NoFeedback	UserTiming	C	likeRanking	fluent	
A2HC9549CZAKNN	fajci1	1	25	2018-04-16 03:13:32	Alice	na	1	2.829	0	0	0	isabella	pleasantness	NoFeedback	UserTiming	C	likeRanking	fluent	
A2HC9549CZAKNN	fajci1	1	26	2018-04-16 03:13:35	Lanre	na	4	3.335	0	0	0	shaun	pleasantness	NoFeedback	UserTiming	C	likeRanking	disfluent	
A2HC9549CZAKNN	fajci1	1	ExtraInfo_FQ1	2018-04-16 03:13:44	7.825	Smooth	Stimuli1.txt	Order2.txt
A2HC9549CZAKNN	fajci1	1	ExtraInfo_FQ2	2018-04-16 03:13:48	3.615	Naive	Stimuli1.txt	Order2.txt
A2HC9549CZAKNN	fajci1	1	ExtraInfo_All	2018-04-16 03:13:48	NA	Female	40	-select level-	Fluent	USA	Smooth	Naive	Stimuli1.txt	Order2.txt	http://pincub.com/fajci/login.php?username=A2HC9549CZAKNN&sessionnum=2
