UserID	Experiment	SessionNum	Trial	Date	Question	Answer	Response	RT	LenScore	LenAcc	StrictAcc	actor	TrialType	Feedback	DurationControl	Group	Phase	Condition
A2CHKF2A6F4MIX	fajci1	1	ExtraInfo_Demographics	2018-04-16 02:53:29	29.125	Female	33	Graduate degree (Masters, Doctorate, etc.)	Fluent	USA, WISCONSIN
A2CHKF2A6F4MIX	fajci1	1	1	2018-04-16 02:57:22	<iframe width="560" height="315" src="https://www.youtube.com/embed/ERsGUjht038?rel=0&amp;showinfo=0" frameborder="0" allow="autoplay; encrypted-media" allowfullscreen></iframe>	na		208.244	0	0	0	rachel	EmbededVideo	NoFeedback	UserTiming	A	watchingVideo	disfluent	
A2CHKF2A6F4MIX	fajci1	1	2	2018-04-16 02:58:10	Where is Alicia from?	Massachusetts	masachussetes	46.505	84.615384615385	1	0	rachel	test	NoFeedback	UserTiming	B	Restudy	disfluent	
A2CHKF2A6F4MIX	fajci1	1	3	2018-04-16 02:58:26	Where does Alicia go to college?	Duke	in summer	14.664	30.769230769231	0	0	rachel	test	NoFeedback	UserTiming	B	Restudy	disfluent	
A2CHKF2A6F4MIX	fajci1	1	4	2018-04-16 02:58:46	Name two activities Alicia participates in at college	debate team and mock trial	changin law enformcment	18.79	16.326530612245	0	0	rachel	test	NoFeedback	UserTiming	B	Restudy	disfluent	
A2CHKF2A6F4MIX	fajci1	1	5	2018-04-16 03:06:35	<iframe width="560" height="315" src="https://www.youtube.com/embed/6uVaYM2KCuk?rel=0&amp;showinfo=0" frameborder="0" allow="autoplay; encrypted-media" allowfullscreen></iframe>	na		467.58	0	0	0	ashish	EmbededVideo	NoFeedback	UserTiming	A	watchingVideo	fluent	
A2CHKF2A6F4MIX	fajci1	1	6	2018-04-16 03:06:47	Where is Rohan from?	Oakland	california	10.4	35.294117647059	0	0	rohan	test	NoFeedback	UserTiming	B	Restudy	fluent	
A2CHKF2A6F4MIX	fajci1	1	7	2018-04-16 03:07:40	Where did Rohan attend college?	Carnegie Mellon	grossmont college	52.563	25	0	0	rohan	test	NoFeedback	UserTiming	B	Restudy	fluent	
A2CHKF2A6F4MIX	fajci1	1	8	2018-04-16 03:07:55	What were Rohan’s majors in college?	Political Science and Communications	comunnications	14.122	52	0	0	rohan	test	NoFeedback	UserTiming	B	Restudy	fluent	
A2CHKF2A6F4MIX	fajci1	1	9	2018-04-16 03:11:36	<iframe width="560" height="315" src="https://www.youtube.com/embed/XCVQ7-Vde8c?rel=0&amp;showinfo=0" frameborder="0" allow="autoplay; encrypted-media" allowfullscreen></iframe>	na		219.842	0	0	0	isabella	EmbededVideo	NoFeedback	UserTiming	A	watchingVideo	fluent	
A2CHKF2A6F4MIX	fajci1	1	10	2018-04-16 03:13:17	Where does Alice attend college?	University of Pennsylvania	maine, upen	99.329	32.432432432432	0	0	isabella	test	NoFeedback	UserTiming	B	Restudy	fluent	
A2CHKF2A6F4MIX	fajci1	1	11	2018-04-16 03:13:53	What is Alice’s major?	Science, Technology, and Society	science, technology and society	34.666	98.412698412698	1	0	isabella	test	NoFeedback	UserTiming	B	Restudy	fluent	
A2CHKF2A6F4MIX	fajci1	1	12	2018-04-16 03:14:09	Where is Alice from?	Maine	maine	13.572	100	1	1	isabella	test	NoFeedback	UserTiming	B	Restudy	fluent	
A2CHKF2A6F4MIX	fajci1	1	13	2018-04-16 03:15:23	<iframe width="560" height="315" src="https://www.youtube.com/embed/tV2O8tek-nU?rel=0&amp;showinfo=0" frameborder="0" allow="autoplay; encrypted-media" allowfullscreen></iframe>	na		72.971	0	0	0	shaun	EmbededVideo	NoFeedback	UserTiming	A	watchingVideo	disfluent	
A2CHKF2A6F4MIX	fajci1	1	14	2018-04-16 03:15:33	Where was Lanre born?	Wisconsin	wisconsin	8.816	100	1	1	shaun	test	NoFeedback	UserTiming	B	Restudy	disfluent	
A2CHKF2A6F4MIX	fajci1	1	15	2018-04-16 03:21:21	What college does Lanre attend?	Princeton	economics and politics	345.458	19.354838709677	0	0	shaun	test	NoFeedback	UserTiming	B	Restudy	disfluent	
A2CHKF2A6F4MIX	fajci1	1	16	2018-04-16 03:30:56	Where did Lanre intern last summer?	ACLU	askill you organiyation	573.533	22.222222222222	0	0	shaun	test	NoFeedback	UserTiming	B	Restudy	disfluent	
A2CHKF2A6F4MIX	fajci1	1	17	2018-04-16 03:31:39				41.713	0	0	1		StepOut	NA	NA	soStudy.html	NA	
A2CHKF2A6F4MIX	fajci1	1	18	2018-04-16 03:32:19	Alicia	na	2	38.584	0	0	0	rachel	JOL	NoFeedback	UserTiming	C	Ranking	disfluent	
A2CHKF2A6F4MIX	fajci1	1	19	2018-04-16 03:32:26	Rohan	na	3	4.385	0	0	0	ashish	JOL	NoFeedback	UserTiming	C	Ranking	fluent	
A2CHKF2A6F4MIX	fajci1	1	20	2018-04-16 03:32:32	Alice	na	1	4.611	0	0	0	isabella	JOL	NoFeedback	UserTiming	C	Ranking	fluent	
A2CHKF2A6F4MIX	fajci1	1	21	2018-04-16 03:32:37	Lanre	na	4	4.295	0	0	0	shaun	JOL	NoFeedback	UserTiming	C	Ranking	disfluent	
A2CHKF2A6F4MIX	fajci1	1	21	2018-04-16 03:32:38	Lanre	na	4	4.773	0	0	0	shaun	JOL	NoFeedback	UserTiming	C	Ranking	disfluent	
A2CHKF2A6F4MIX	fajci1	1	22	2018-04-16 03:32:44				4.89	0	0	1		StepOut	NA	NA	soTest.html	NA	
A2CHKF2A6F4MIX	fajci1	1	23	2018-04-16 03:32:51	Alicia	na	2	6.3	0	0	0	rachel	pleasantness	NoFeedback	UserTiming	C	likeRanking	disfluent	
A2CHKF2A6F4MIX	fajci1	1	24	2018-04-16 03:32:56	Rohan	na	3	4.57	0	0	0	ashish	pleasantness	NoFeedback	UserTiming	C	likeRanking	fluent	
A2CHKF2A6F4MIX	fajci1	1	25	2018-04-16 03:33:02	Alice	na	1	5.354	0	0	0	isabella	pleasantness	NoFeedback	UserTiming	C	likeRanking	fluent	
A2CHKF2A6F4MIX	fajci1	1	26	2018-04-16 03:33:11	Lanre	na	4	5.198	0	0	0	shaun	pleasantness	NoFeedback	UserTiming	C	likeRanking	disfluent	
A2CHKF2A6F4MIX	fajci1	1	ExtraInfo_FQ1	2018-04-16 03:33:20	7.455	Smooth	Stimuli1.txt	Order2.txt
A2CHKF2A6F4MIX	fajci1	1	ExtraInfo_FQ2	2018-04-16 03:33:25	5.102	Naive	Stimuli1.txt	Order2.txt
A2CHKF2A6F4MIX	fajci1	1	ExtraInfo_All	2018-04-16 03:33:25	NA	Female	33	Graduate degree (Masters, Doctorate, etc.)	Fluent	USA, WISCONSIN	Smooth	Naive	Stimuli1.txt	Order2.txt	http://pincub.com/fajci/login.php?username=A2CHKF2A6F4MIX&sessionnum=2
