UserID	Experiment	SessionNum	Trial	Date	Question	Answer	Response	RT	LenScore	LenAcc	StrictAcc	actor	TrialType	Feedback	DurationControl	Group	Phase	Condition
A2FSRTLWWII5EN	fajci1	1	ExtraInfo_Demographics	2018-04-16 05:02:03	13.115	Male	24	Bachelors degree	Fluent	US
A2FSRTLWWII5EN	fajci1	1	1	2018-04-16 05:05:50	<iframe width="560" height="315" src="https://www.youtube.com/embed/1xhfvSM8fUs?rel=0&amp;showinfo=0" frameborder="0" allow="autoplay; encrypted-media" allowfullscreen></iframe>	na		224.39	0	0	0	rachel	EmbededVideo	NoFeedback	UserTiming	A	watchingVideo	fluent	
A2FSRTLWWII5EN	fajci1	1	2	2018-04-16 05:05:55	Where is Alicia from?	Massachusetts	massachusetts	4.329	100	1	1	rachel	test	NoFeedback	UserTiming	B	Restudy	fluent	
A2FSRTLWWII5EN	fajci1	1	3	2018-04-16 05:06:05	Where does Alicia go to college?	Duke	duke university	9.751	42.105263157895	0	0	rachel	test	NoFeedback	UserTiming	B	Restudy	fluent	
A2FSRTLWWII5EN	fajci1	1	4	2018-04-16 05:06:13	Name two activities Alicia participates in at college	debate team and mock trial	debate, mock trial	6.952	77.272727272727	1	0	rachel	test	NoFeedback	UserTiming	B	Restudy	fluent	
A2FSRTLWWII5EN	fajci1	1	5	2018-04-16 05:11:51	<iframe width="560" height="315" src="https://www.youtube.com/embed/h6wN99Rro4c?rel=0&amp;showinfo=0" frameborder="0" allow="autoplay; encrypted-media" allowfullscreen></iframe>	na		338.065	0	0	0	ashish	EmbededVideo	NoFeedback	UserTiming	A	watchingVideo	disfluent	
A2FSRTLWWII5EN	fajci1	1	6	2018-04-16 05:12:03	Where is Rohan from?	Oakland	california	11.477	35.294117647059	0	0	rohan	test	NoFeedback	UserTiming	B	Restudy	disfluent	
A2FSRTLWWII5EN	fajci1	1	7	2018-04-16 05:12:37	Where did Rohan attend college?	Carnegie Mellon	cmu	33.007	22.222222222222	0	0	rohan	test	NoFeedback	UserTiming	B	Restudy	disfluent	
A2FSRTLWWII5EN	fajci1	1	8	2018-04-16 05:13:00	What were Rohan’s majors in college?	Political Science and Communications	political science and communication	22.89	98.591549295775	1	0	rohan	test	NoFeedback	UserTiming	B	Restudy	disfluent	
A2FSRTLWWII5EN	fajci1	1	9	2018-04-16 05:15:32	<iframe width="560" height="315" src="https://www.youtube.com/embed/DC2xi-PQ6Xg?rel=0&amp;showinfo=0" frameborder="0" allow="autoplay; encrypted-media" allowfullscreen></iframe>	na		151.537	0	0	0	isabella	EmbededVideo	NoFeedback	UserTiming	A	watchingVideo	disfluent	
A2FSRTLWWII5EN	fajci1	1	10	2018-04-16 05:15:36	Where does Alice attend college?	University of Pennsylvania	science, technology and society	3.265	31.578947368421	0	0	isabella	test	NoFeedback	UserTiming	B	Restudy	disfluent	
A2FSRTLWWII5EN	fajci1	1	11	2018-04-16 05:15:56	What is Alice’s major?	Science, Technology, and Society	maine	19.145	16.216216216216	0	0	isabella	test	NoFeedback	UserTiming	B	Restudy	disfluent	
A2FSRTLWWII5EN	fajci1	1	12	2018-04-16 05:16:09	Where is Alice from?	Maine	maine	13.382	100	1	1	isabella	test	NoFeedback	UserTiming	B	Restudy	disfluent	
A2FSRTLWWII5EN	fajci1	1	13	2018-04-16 05:26:08	<iframe width="560" height="315" src="https://www.youtube.com/embed/nwIuZNSKcDo?rel=0&amp;showinfo=0" frameborder="0" allow="autoplay; encrypted-media" allowfullscreen></iframe>	na		598.297	0	0	0	shaun	EmbededVideo	NoFeedback	UserTiming	A	watchingVideo	fluent	
A2FSRTLWWII5EN	fajci1	1	14	2018-04-16 05:26:14	Where was Lanre born?	Wisconsin	wisconsin	4.963	100	1	1	shaun	test	NoFeedback	UserTiming	B	Restudy	fluent	
A2FSRTLWWII5EN	fajci1	1	15	2018-04-16 05:26:22	What college does Lanre attend?	Princeton	piers university	7.374	32	0	0	shaun	test	NoFeedback	UserTiming	B	Restudy	fluent	
A2FSRTLWWII5EN	fajci1	1	16	2018-04-16 05:26:26	Where did Lanre intern last summer?	ACLU	aclu	3.44	100	1	1	shaun	test	NoFeedback	UserTiming	B	Restudy	fluent	
A2FSRTLWWII5EN	fajci1	1	17	2018-04-16 05:28:33				126.347	0	0	1		StepOut	NA	NA	soStudy.html	NA	
A2FSRTLWWII5EN	fajci1	1	18	2018-04-16 05:28:39	Alicia	na	2	6.13	0	0	0	rachel	JOL	NoFeedback	UserTiming	C	hireRanking	fluent	
A2FSRTLWWII5EN	fajci1	1	19	2018-04-16 05:28:43	Rohan	na	1	2.981	0	0	0	ashish	JOL	NoFeedback	UserTiming	C	hireRanking	disfluent	
A2FSRTLWWII5EN	fajci1	1	20	2018-04-16 05:28:46	Alice	na	4	3.176	0	0	0	isabella	JOL	NoFeedback	UserTiming	C	hireRanking	disfluent	
A2FSRTLWWII5EN	fajci1	1	21	2018-04-16 05:28:50	Lanre	na	3	2.825	0	0	0	shaun	JOL	NoFeedback	UserTiming	C	hireRanking	fluent	
A2FSRTLWWII5EN	fajci1	1	22	2018-04-16 05:28:52				1.707	0	0	1		StepOut	NA	NA	soTest.html	NA	
A2FSRTLWWII5EN	fajci1	1	23	2018-04-16 05:28:56	Alicia	na	2	3.292	0	0	0	rachel	pleasantness	NoFeedback	UserTiming	C	likeRanking	fluent	
A2FSRTLWWII5EN	fajci1	1	24	2018-04-16 05:28:59	Rohan	na	3	2.841	0	0	0	ashish	pleasantness	NoFeedback	UserTiming	C	likeRanking	disfluent	
A2FSRTLWWII5EN	fajci1	1	25	2018-04-16 05:29:03	Alice	na	1	3.192	0	0	0	isabella	pleasantness	NoFeedback	UserTiming	C	likeRanking	disfluent	
A2FSRTLWWII5EN	fajci1	1	26	2018-04-16 05:29:07	Lanre	na	4	3.554	0	0	0	shaun	pleasantness	NoFeedback	UserTiming	C	likeRanking	fluent	
A2FSRTLWWII5EN	fajci1	1	ExtraInfo_FQ1	2018-04-16 05:29:11	3.003	Smooth	Stimuli1.txt	Order1.txt
A2FSRTLWWII5EN	fajci1	1	ExtraInfo_FQ2	2018-04-16 05:29:13	2.756	Naive	Stimuli1.txt	Order1.txt
A2FSRTLWWII5EN	fajci1	1	ExtraInfo_All	2018-04-16 05:29:13	NA	Male	24	Bachelors degree	Fluent	US	Smooth	Naive	Stimuli1.txt	Order1.txt	http://pincub.com/fajci/login.php?username=A2FSRTLWWII5EN&sessionnum=2
