UserID	Experiment	SessionNum	Trial	Date	Question	Answer	Response	RT	LenScore	LenAcc	StrictAcc	actor	TrialType	Feedback	DurationControl	Group	Phase	Condition
A1TLNLB9D87H6	fajci1	1	ExtraInfo_Demographics	2018-04-16 02:55:39	36.832	Female	34	Associates degree	Fluent	USA
A1TLNLB9D87H6	fajci1	1	1	2018-04-16 02:58:17	<iframe width="560" height="315" src="https://www.youtube.com/embed/1xhfvSM8fUs?rel=0&amp;showinfo=0" frameborder="0" allow="autoplay; encrypted-media" allowfullscreen></iframe>	na		130.916	0	0	0	rachel	EmbededVideo	NoFeedback	UserTiming	A	watchingVideo	fluent	
A1TLNLB9D87H6	fajci1	1	2	2018-04-16 02:58:51	Where is Alicia from?	Massachusetts	small town in massachusetts	33.543	65	0	0	rachel	test	NoFeedback	UserTiming	B	Restudy	fluent	
A1TLNLB9D87H6	fajci1	1	3	2018-04-16 02:58:57	Where does Alicia go to college?	Duke	duke	5.822	100	1	1	rachel	test	NoFeedback	UserTiming	B	Restudy	fluent	
A1TLNLB9D87H6	fajci1	1	4	2018-04-16 02:59:31	Name two activities Alicia participates in at college	debate team and mock trial	legal debate and i don't remember the other	33.344	43.478260869565	0	0	rachel	test	NoFeedback	UserTiming	B	Restudy	fluent	
A1TLNLB9D87H6	fajci1	1	5	2018-04-16 03:03:19	<iframe width="560" height="315" src="https://www.youtube.com/embed/h6wN99Rro4c?rel=0&amp;showinfo=0" frameborder="0" allow="autoplay; encrypted-media" allowfullscreen></iframe>	na		227.34	0	0	0	ashish	EmbededVideo	NoFeedback	UserTiming	A	watchingVideo	disfluent	
A1TLNLB9D87H6	fajci1	1	6	2018-04-16 03:03:25	Where is Rohan from?	Oakland	oaklan	5.945	100	1	1	rohan	test	NoFeedback	UserTiming	B	Restudy	disfluent	
A1TLNLB9D87H6	fajci1	1	6	2018-04-16 03:03:26	Where is Rohan from?	Oakland	oakland	5.942	100	1	1	rohan	test	NoFeedback	UserTiming	B	Restudy	disfluent	
A1TLNLB9D87H6	fajci1	1	7	2018-04-16 03:03:30	Where did Rohan attend college?	Carnegie Mellon	cmu	4.028	22.222222222222	0	0	rohan	test	NoFeedback	UserTiming	B	Restudy	disfluent	
A1TLNLB9D87H6	fajci1	1	9	2018-04-16 03:05:34	<iframe width="560" height="315" src="https://www.youtube.com/embed/DC2xi-PQ6Xg?rel=0&amp;showinfo=0" frameborder="0" allow="autoplay; encrypted-media" allowfullscreen></iframe>	na		113.227	0	0	0	isabella	EmbededVideo	NoFeedback	UserTiming	A	watchingVideo	disfluent	
A1TLNLB9D87H6	fajci1	1	10	2018-04-16 03:05:41	Where does Alice attend college?	University of Pennsylvania	upenn	6.114	32.258064516129	0	0	isabella	test	NoFeedback	UserTiming	B	Restudy	disfluent	
A1TLNLB9D87H6	fajci1	1	11	2018-04-16 03:05:47	What is Alice’s major?	Science, Technology, and Society	science	6.262	35.897435897436	0	0	isabella	test	NoFeedback	UserTiming	B	Restudy	disfluent	
A1TLNLB9D87H6	fajci1	1	12	2018-04-16 03:05:52	Where is Alice from?	Maine	maine	3.803	100	1	1	isabella	test	NoFeedback	UserTiming	B	Restudy	disfluent	
A1TLNLB9D87H6	fajci1	1	13	2018-04-17 06:53:10				2.533	0	0	1		StepOut	NA	NA	soStartQuizzing.html	NA	
A1TLNLB9D87H6	fajci1	1	14	2018-04-16 03:08:45	Where was Lanre born?	Wisconsin	new york	8.816	11.764705882353	0	0	shaun	test	NoFeedback	UserTiming	B	Restudy	fluent	
A1TLNLB9D87H6	fajci1	1	15	2018-04-16 03:08:55	What college does Lanre attend?	Princeton	aclu	9.83	15.384615384615	0	0	shaun	test	NoFeedback	UserTiming	B	Restudy	fluent	
A1TLNLB9D87H6	fajci1	1	16	2018-04-16 03:09:11	Where did Lanre intern last summer?	ACLU	i don't remember	14.753	0	0	0	shaun	test	NoFeedback	UserTiming	B	Restudy	fluent	
A1TLNLB9D87H6	fajci1	1	17	2018-04-16 03:09:20				8.599	0	0	1		StepOut	NA	NA	soStudy.html	NA	
A1TLNLB9D87H6	fajci1	1	18	2018-04-16 03:09:39	Alicia	na	3	18.703	0	0	0	rachel	JOL	NoFeedback	UserTiming	C	hireRanking	fluent	
A1TLNLB9D87H6	fajci1	1	m	2018-04-16 03:09:44	weirdrow	na	1	4.684	0	0	0	ashish	JOL	NoFeedback	UserTiming	C	hireRanking	disfluent	
A1TLNLB9D87H6	fajci1	1	19	2018-04-16 03:09:44	Rohan	na	1	4.684	0	0	0	ashish	JOL	NoFeedback	UserTiming	C	hireRanking	disfluent	
A1TLNLB9D87H6	fajci1	1	20	2018-04-16 03:09:50	Alice	na	4	5.195	0	0	0	isabella	JOL	NoFeedback	UserTiming	C	hireRanking	disfluent	
A1TLNLB9D87H6	fajci1	1	21	2018-04-16 03:09:55	Lanre	na	2	4.299	0	0	0	shaun	JOL	NoFeedback	UserTiming	C	hireRanking	fluent	
A1TLNLB9D87H6	fajci1	1	22	2018-04-16 03:09:58				2.8	0	0	1		StepOut	NA	NA	soTest.html	NA	
A1TLNLB9D87H6	fajci1	1	23	2018-04-16 03:10:21	Alicia	na	2	22.462	0	0	0	rachel	pleasantness	NoFeedback	UserTiming	C	likeRanking	fluent	
A1TLNLB9D87H6	fajci1	1	24	2018-04-16 03:10:25	Rohan	na	1	3.326	0	0	0	ashish	pleasantness	NoFeedback	UserTiming	C	likeRanking	disfluent	
A1TLNLB9D87H6	fajci1	1	25	2018-04-16 03:10:28	Alice	na	4	3.308	0	0	0	isabella	pleasantness	NoFeedback	UserTiming	C	likeRanking	disfluent	
A1TLNLB9D87H6	fajci1	1	ExtraInfo_FQ1	2018-04-16 03:10:43	10.443	Smooth	Stimuli1.txt	Order1.txt
A1TLNLB9D87H6	fajci1	1	ExtraInfo_FQ2	2018-04-16 03:10:48	4.693	Naive	Stimuli1.txt	Order1.txt
A1TLNLB9D87H6	fajci1	1	ExtraInfo_All	2018-04-16 03:10:48	NA	Female	34	Associates degree	Fluent	USA	Smooth	Naive	Stimuli1.txt	Order1.txt	http://pincub.com/fajci/login.php?username=A1TLNLB9D87H6&sessionnum=2
