UserID	Experiment	SessionNum	Trial	Date	Question	Answer	Response	RT	LenScore	LenAcc	StrictAcc	actor	TrialType	Feedback	DurationControl	Group	Phase	Condition
A1USDMJVT10CE4	fajci1	1	ExtraInfo_Demographics	2018-04-16 02:52:17	55.453	Male	26	Some college, no degree	Fluent	USA
A1USDMJVT10CE4	fajci1	1	1	2018-04-16 02:54:31	<iframe width="560" height="315" src="https://www.youtube.com/embed/1xhfvSM8fUs?rel=0&amp;showinfo=0" frameborder="0" allow="autoplay; encrypted-media" allowfullscreen></iframe>	na		129.024	0	0	0	rachel	EmbededVideo	NoFeedback	UserTiming	A	watchingVideo	fluent	
A1USDMJVT10CE4	fajci1	1	2	2018-04-16 02:55:06	Where is Alicia from?	Massachusetts	massachusetts	33.975	100	1	1	rachel	test	NoFeedback	UserTiming	B	Restudy	fluent	
A1USDMJVT10CE4	fajci1	1	3	2018-04-16 02:55:43	Where does Alicia go to college?	Duke	duke university	37.194	42.105263157895	0	0	rachel	test	NoFeedback	UserTiming	B	Restudy	fluent	
A1USDMJVT10CE4	fajci1	1	4	2018-04-16 02:56:21	Name two activities Alicia participates in at college	debate team and mock trial	debate team, math trial team	37.231	70.37037037037	0	0	rachel	test	NoFeedback	UserTiming	B	Restudy	fluent	
A1USDMJVT10CE4	fajci1	1	5	2018-04-16 03:00:02	<iframe width="560" height="315" src="https://www.youtube.com/embed/h6wN99Rro4c?rel=0&amp;showinfo=0" frameborder="0" allow="autoplay; encrypted-media" allowfullscreen></iframe>	na		220.644	0	0	0	ashish	EmbededVideo	NoFeedback	UserTiming	A	watchingVideo	disfluent	
A1USDMJVT10CE4	fajci1	1	6	2018-04-16 03:00:26	Where is Rohan from?	Oakland	california	23.345	35.294117647059	0	0	rohan	test	NoFeedback	UserTiming	B	Restudy	disfluent	
A1USDMJVT10CE4	fajci1	1	7	2018-04-16 03:03:44	Where did Rohan attend college?	Carnegie Mellon	carnegie university	197.283	58.823529411765	0	0	rohan	test	NoFeedback	UserTiming	B	Restudy	disfluent	
A1USDMJVT10CE4	fajci1	1	8	2018-04-16 03:04:20	What were Rohan’s majors in college?	Political Science and Communications	political science and communications	35.459	100	1	1	rohan	test	NoFeedback	UserTiming	B	Restudy	disfluent	
A1USDMJVT10CE4	fajci1	1	9	2018-04-16 03:05:19	<iframe width="560" height="315" src="https://www.youtube.com/embed/DC2xi-PQ6Xg?rel=0&amp;showinfo=0" frameborder="0" allow="autoplay; encrypted-media" allowfullscreen></iframe>	na		58.454	0	0	0	isabella	EmbededVideo	NoFeedback	UserTiming	A	watchingVideo	disfluent	
A1USDMJVT10CE4	fajci1	1	10	2018-04-16 03:05:51	Where does Alice attend college?	University of Pennsylvania	upenn	31.84	32.258064516129	0	0	isabella	test	NoFeedback	UserTiming	B	Restudy	disfluent	
A1USDMJVT10CE4	fajci1	1	11	2018-04-16 03:06:15	What is Alice’s major?	Science, Technology, and Society	science technology and society.	23.514	95.238095238095	1	0	isabella	test	NoFeedback	UserTiming	B	Restudy	disfluent	
A1USDMJVT10CE4	fajci1	1	12	2018-04-16 03:06:23	Where is Alice from?	Maine	maine	7.68	100	1	1	isabella	test	NoFeedback	UserTiming	B	Restudy	disfluent	
A1USDMJVT10CE4	fajci1	1	13	2018-04-16 03:07:10	<iframe width="560" height="315" src="https://www.youtube.com/embed/nwIuZNSKcDo?rel=0&amp;showinfo=0" frameborder="0" allow="autoplay; encrypted-media" allowfullscreen></iframe>	na		46.875	0	0	0	shaun	EmbededVideo	NoFeedback	UserTiming	A	watchingVideo	fluent	
A1USDMJVT10CE4	fajci1	1	14	2018-04-16 03:07:29	Where was Lanre born?	Wisconsin	wisconsin	18.627	100	1	1	shaun	test	NoFeedback	UserTiming	B	Restudy	fluent	
A1USDMJVT10CE4	fajci1	1	15	2018-04-16 03:07:45	What college does Lanre attend?	Princeton	prince university	14.878	53.846153846154	0	0	shaun	test	NoFeedback	UserTiming	B	Restudy	fluent	
A1USDMJVT10CE4	fajci1	1	16	2018-04-16 03:11:48	Where did Lanre intern last summer?	ACLU	did not specify	242.546	10.526315789474	0	0	shaun	test	NoFeedback	UserTiming	B	Restudy	fluent	
A1USDMJVT10CE4	fajci1	1	17	2018-04-16 03:11:57				8.609	0	0	1		StepOut	NA	NA	soStudy.html	NA	
A1USDMJVT10CE4	fajci1	1	18	2018-04-16 03:12:06	Alicia	na	4	8.545	0	0	0	rachel	JOL	NoFeedback	UserTiming	C	hireRanking	fluent	
A1USDMJVT10CE4	fajci1	1	19	2018-04-16 03:12:18	Rohan	na	4	12.274	0	0	0	ashish	JOL	NoFeedback	UserTiming	C	hireRanking	disfluent	
A1USDMJVT10CE4	fajci1	1	20	2018-04-16 03:12:25	Alice	na	2	5.975	0	0	0	isabella	JOL	NoFeedback	UserTiming	C	hireRanking	disfluent	
A1USDMJVT10CE4	fajci1	1	21	2018-04-16 03:12:28	Lanre	na	1	3.263	0	0	0	shaun	JOL	NoFeedback	UserTiming	C	hireRanking	fluent	
A1USDMJVT10CE4	fajci1	1	22	2018-04-16 03:12:31				2.447	0	0	1		StepOut	NA	NA	soTest.html	NA	
A1USDMJVT10CE4	fajci1	1	23	2018-04-16 03:12:50	Alicia	na	2	18.683	0	0	0	rachel	pleasantness	NoFeedback	UserTiming	C	likeRanking	fluent	
A1USDMJVT10CE4	fajci1	1	24	2018-04-16 03:12:55	Rohan	na	4	4.724	0	0	0	ashish	pleasantness	NoFeedback	UserTiming	C	likeRanking	disfluent	
A1USDMJVT10CE4	fajci1	1	25	2018-04-16 03:13:01	Alice	na	2	5.865	0	0	0	isabella	pleasantness	NoFeedback	UserTiming	C	likeRanking	disfluent	
A1USDMJVT10CE4	fajci1	1	26	2018-04-16 03:13:05	Lanre	na	1	2.959	0	0	0	shaun	pleasantness	NoFeedback	UserTiming	C	likeRanking	fluent	
A1USDMJVT10CE4	fajci1	1	27	2018-04-16 03:13:05	joyce	na	1	2.959	0	0	0	shaun	pleasantness	NoFeedback	UserTiming	C	likeRanking	fluent	
A1USDMJVT10CE4	fajci1	1	ExtraInfo_FQ1	2018-04-16 03:13:09	3.732	Smooth	Stimuli1.txt	Order1.txt
A1USDMJVT10CE4	fajci1	1	ExtraInfo_FQ2	2018-04-16 03:13:13	4.169	Naive	Stimuli1.txt	Order1.txt
A1USDMJVT10CE4	fajci1	1	ExtraInfo_All	2018-04-16 03:13:13	NA	Male	26	Some college, no degree	Fluent	USA	Smooth	Naive	Stimuli1.txt	Order1.txt	http://pincub.com/fajci/login.php?username=A1USDMJVT10CE4&sessionnum=2
