UserID	Experiment	SessionNum	Trial	Date	Question	Answer	Response	RT	LenScore	LenAcc	StrictAcc	actor	TrialType	Feedback	DurationControl	Group	Phase	Condition
A2UUKFTD0VUX2S	fajci1	1	ExtraInfo_Demographics	2018-04-16 08:52:04	24.534	Male	32	Bachelors degree	Fluent	USA
A2UUKFTD0VUX2S	fajci1	1	1	2018-04-16 08:55:15	<iframe width="560" height="315" src="https://www.youtube.com/embed/1xhfvSM8fUs?rel=0&amp;showinfo=0" frameborder="0" allow="autoplay; encrypted-media" allowfullscreen></iframe>	na		146.539	0	0	0	rachel	EmbededVideo	NoFeedback	UserTiming	A	watchingVideo	fluent	
UserID	Experiment	SessionNum	Trial	Date	Question	Answer	Response	RT	LenScore	LenAcc	StrictAcc	actor	TrialType	Feedback	DurationControl	Group	Phase	Condition
A2UUKFTD0VUX2S	fajci1	1	ExtraInfo_Demographics	2018-04-16 08:56:03	22.88	Male	32	Bachelors degree	Fluent	USA
A2UUKFTD0VUX2S	fajci1	1	1	2018-04-16 09:00:25	<iframe width="560" height="315" src="https://www.youtube.com/embed/ERsGUjht038?rel=0&amp;showinfo=0" frameborder="0" allow="autoplay; encrypted-media" allowfullscreen></iframe>	na		259	0	0	0	rachel	EmbededVideo	NoFeedback	UserTiming	A	watchingVideo	disfluent	
A2UUKFTD0VUX2S	fajci1	1	2	2018-04-16 09:01:06	Where is Alicia from?	Massachusetts	massachusetts	41.088	100	1	1	rachel	test	NoFeedback	UserTiming	B	Restudy	disfluent	
A2UUKFTD0VUX2S	fajci1	1	3	2018-04-16 09:01:28	Where does Alicia go to college?	Duke	massachussetts	21.18	22.222222222222	0	0	rachel	test	NoFeedback	UserTiming	B	Restudy	disfluent	
UserID	Experiment	SessionNum	Trial	Date	Question	Answer	Response	RT	LenScore	LenAcc	StrictAcc	actor	TrialType	Feedback	DurationControl	Group	Phase	Condition
A2UUKFTD0VUX2S	fajci1	1	ExtraInfo_Demographics	2018-04-16 09:04:24	68.223	Male	32	Bachelors degree	Fluent	United States
A2UUKFTD0VUX2S	fajci1	1	1	2018-04-16 09:10:43	<iframe width="560" height="315" src="https://www.youtube.com/embed/1xhfvSM8fUs?rel=0&amp;showinfo=0" frameborder="0" allow="autoplay; encrypted-media" allowfullscreen></iframe>	na		356.238	0	0	0	rachel	EmbededVideo	NoFeedback	UserTiming	A	watchingVideo	fluent	
A2UUKFTD0VUX2S	fajci1	1	2	2018-04-16 09:10:57	Where is Alicia from?	Massachusetts	boston	13.115	21.052631578947	0	0	rachel	test	NoFeedback	UserTiming	B	Restudy	fluent	
A2UUKFTD0VUX2S	fajci1	1	3	2018-04-16 09:11:04	Where does Alicia go to college?	Duke	duke	7.097	100	1	1	rachel	test	NoFeedback	UserTiming	B	Restudy	fluent	
A2UUKFTD0VUX2S	fajci1	1	3	2018-04-16 09:11:05	Where does Alicia go to college?	Duke	duke	7.474	100	1	1	rachel	test	NoFeedback	UserTiming	B	Restudy	fluent	
A2UUKFTD0VUX2S	fajci1	1	4	2018-04-16 09:11:33	Name two activities Alicia participates in at college	debate team and mock trial	debate, trial team	28.083	54.545454545455	0	0	rachel	test	NoFeedback	UserTiming	B	Restudy	fluent	
A2UUKFTD0VUX2S	fajci1	1	5	2018-04-16 09:16:44	<iframe width="560" height="315" src="https://www.youtube.com/embed/h6wN99Rro4c?rel=0&amp;showinfo=0" frameborder="0" allow="autoplay; encrypted-media" allowfullscreen></iframe>	na		309.544	0	0	0	ashish	EmbededVideo	NoFeedback	UserTiming	A	watchingVideo	disfluent	
A2UUKFTD0VUX2S	fajci1	1	6	2018-04-16 09:17:07	Where is Rohan from?	Oakland	oakland california	22.9	56	0	0	rohan	test	NoFeedback	UserTiming	B	Restudy	disfluent	
A2UUKFTD0VUX2S	fajci1	1	7	2018-04-16 09:17:20	Where did Rohan attend college?	Carnegie Mellon	cmu	11.947	22.222222222222	0	0	rohan	test	NoFeedback	UserTiming	B	Restudy	disfluent	
A2UUKFTD0VUX2S	fajci1	1	8	2018-04-16 09:17:53	What were Rohan’s majors in college?	Political Science and Communications	political science and communication	32.72	98.591549295775	1	0	rohan	test	NoFeedback	UserTiming	B	Restudy	disfluent	
A2UUKFTD0VUX2S	fajci1	1	9	2018-04-16 09:20:37	<iframe width="560" height="315" src="https://www.youtube.com/embed/DC2xi-PQ6Xg?rel=0&amp;showinfo=0" frameborder="0" allow="autoplay; encrypted-media" allowfullscreen></iframe>	na		163.277	0	0	0	isabella	EmbededVideo	NoFeedback	UserTiming	A	watchingVideo	disfluent	
A2UUKFTD0VUX2S	fajci1	1	10	2018-04-16 09:22:13	Where does Alice attend college?	University of Pennsylvania	university of pennsylvania	95.052	100	1	1	isabella	test	NoFeedback	UserTiming	B	Restudy	disfluent	
A2UUKFTD0VUX2S	fajci1	1	11	2018-04-16 09:22:40	What is Alice’s major?	Science, Technology, and Society	science technology and society	26.033	96.774193548387	1	0	isabella	test	NoFeedback	UserTiming	B	Restudy	disfluent	
A2UUKFTD0VUX2S	fajci1	1	12	2018-04-16 09:22:53	Where is Alice from?	Maine	maine	11.736	100	1	1	isabella	test	NoFeedback	UserTiming	B	Restudy	disfluent	
A2UUKFTD0VUX2S	fajci1	1	13	2018-04-16 09:28:08	<iframe width="560" height="315" src="https://www.youtube.com/embed/nwIuZNSKcDo?rel=0&amp;showinfo=0" frameborder="0" allow="autoplay; encrypted-media" allowfullscreen></iframe>	na		315.043	0	0	0	shaun	EmbededVideo	NoFeedback	UserTiming	A	watchingVideo	fluent	
A2UUKFTD0VUX2S	fajci1	1	14	2018-04-16 09:28:52	Where was Lanre born?	Wisconsin	wisconsin	42.894	100	1	1	shaun	test	NoFeedback	UserTiming	B	Restudy	fluent	
A2UUKFTD0VUX2S	fajci1	1	15	2018-04-16 09:29:45	What college does Lanre attend?	Princeton	princeton university	51.827	62.068965517241	0	0	shaun	test	NoFeedback	UserTiming	B	Restudy	fluent	
A2UUKFTD0VUX2S	fajci1	1	16	2018-04-16 09:30:10	Where did Lanre intern last summer?	ACLU	aclu	24.755	100	1	1	shaun	test	NoFeedback	UserTiming	B	Restudy	fluent	
A2UUKFTD0VUX2S	fajci1	1	17	2018-04-16 09:30:19				8.083	0	0	1		StepOut	NA	NA	soStudy.html	NA	
A2UUKFTD0VUX2S	fajci1	1	17	2018-04-16 09:30:19				8.475	0	0	1		StepOut	NA	NA	soStudy.html	NA	
A2UUKFTD0VUX2S	fajci1	1	18	2018-04-16 09:33:47	Alicia	na	2	207.116	0	0	0	rachel	JOL	NoFeedback	UserTiming	C	hireRanking	fluent	
A2UUKFTD0VUX2S	fajci1	1	19	2018-04-16 09:34:20	Rohan	na	1	32.4	0	0	0	ashish	JOL	NoFeedback	UserTiming	C	hireRanking	disfluent	
A2UUKFTD0VUX2S	fajci1	1	20	2018-04-16 09:34:31	Alice	na	4	10.196	0	0	0	isabella	JOL	NoFeedback	UserTiming	C	hireRanking	disfluent	
A2UUKFTD0VUX2S	fajci1	1	21	2018-04-16 09:34:38	Lanre	na	2	6.23	0	0	0	shaun	JOL	NoFeedback	UserTiming	C	hireRanking	fluent	
A2UUKFTD0VUX2S	fajci1	1	22	2018-04-16 09:34:46				7.764	0	0	1		StepOut	NA	NA	soTest.html	NA	
A2UUKFTD0VUX2S	fajci1	1	23	2018-04-16 09:35:13	Alicia	na	4	26.05	0	0	0	rachel	pleasantness	NoFeedback	UserTiming	C	likeRanking	fluent	
A2UUKFTD0VUX2S	fajci1	1	24	2018-04-16 09:35:25	Rohan	na	2	11.629	0	0	0	ashish	pleasantness	NoFeedback	UserTiming	C	likeRanking	disfluent	
A2UUKFTD0VUX2S	fajci1	1	25	2018-04-16 09:35:49	Alice	na	4	23.366	0	0	0	isabella	pleasantness	NoFeedback	UserTiming	C	likeRanking	disfluent	
A2UUKFTD0VUX2S	fajci1	1	26	2018-04-16 09:35:57	Lanre	na	1	7.002	0	0	0	shaun	pleasantness	NoFeedback	UserTiming	C	likeRanking	fluent	
A2UUKFTD0VUX2S	fajci1	1	ExtraInfo_FQ1	2018-04-16 09:36:07	8.433	Smooth	Stimuli1.txt	Order1.txt
A2UUKFTD0VUX2S	fajci1	1	ExtraInfo_FQ2	2018-04-16 09:36:12	5.916	Naive	Stimuli1.txt	Order1.txt
A2UUKFTD0VUX2S	fajci1	1	ExtraInfo_All	2018-04-16 09:36:12	NA	Male	32	Bachelors degree	Fluent	United States	Smooth	Naive	Stimuli1.txt	Order1.txt	http://pincub.com/fajci/login.php?username=A2UUKFTD0VUX2S&sessionnum=2
A2UUKFTD0VUX2S	fajci1	1	ExtraInfo_FQ2	2018-04-16 09:36:13	6.283	Naive	Stimuli1.txt	Order1.txt
A2UUKFTD0VUX2S	fajci1	1	ExtraInfo_All	2018-04-16 09:36:13	NA	Male	32	Bachelors degree	Fluent	United States	Smooth	Naive	Stimuli1.txt	Order1.txt	http://pincub.com/fajci/login.php?username=A2UUKFTD0VUX2S&sessionnum=2
