UserID	Experiment	SessionNum	Trial	Date	Question	Answer	Response	RT	LenScore	LenAcc	StrictAcc	actor	TrialType	Feedback	DurationControl	Group	Phase	Condition
A2AX0C0MGNR1UW	fajci1	1	ExtraInfo_Demographics	2018-04-16 03:46:30	1379.63	Male	65	Bachelors degree	Fluent	usa
A2AX0C0MGNR1UW	fajci1	1	1	2018-04-16 03:50:35	<iframe width="560" height="315" src="https://www.youtube.com/embed/1xhfvSM8fUs?rel=0&amp;showinfo=0" frameborder="0" allow="autoplay; encrypted-media" allowfullscreen></iframe>	na		239.075	0	0	0	rachel	EmbededVideo	NoFeedback	UserTiming	A	watchingVideo	fluent	
A2AX0C0MGNR1UW	fajci1	1	2	2018-04-16 03:51:14	Where is Alicia from?	Massachusetts	massachusetts	39.034	100	1	1	rachel	test	NoFeedback	UserTiming	B	Restudy	fluent	
A2AX0C0MGNR1UW	fajci1	1	3	2018-04-16 03:52:02	Where does Alicia go to college?	Duke	duke	47.995	100	1	1	rachel	test	NoFeedback	UserTiming	B	Restudy	fluent	
A2AX0C0MGNR1UW	fajci1	1	4	2018-04-16 03:52:46	Name two activities Alicia participates in at college	debate team and mock trial	debate team,	43.62	57.894736842105	0	0	rachel	test	NoFeedback	UserTiming	B	Restudy	fluent	
A2AX0C0MGNR1UW	fajci1	1	5	2018-04-16 03:54:33	<iframe width="560" height="315" src="https://www.youtube.com/embed/h6wN99Rro4c?rel=0&amp;showinfo=0" frameborder="0" allow="autoplay; encrypted-media" allowfullscreen></iframe>	na		106.515	0	0	0	ashish	EmbededVideo	NoFeedback	UserTiming	A	watchingVideo	disfluent	
A2AX0C0MGNR1UW	fajci1	1	6	2018-04-16 03:54:49	Where is Rohan from?	Oakland	california	15.615	35.294117647059	0	0	rohan	test	NoFeedback	UserTiming	B	Restudy	disfluent	
A2AX0C0MGNR1UW	fajci1	1	7	2018-04-16 03:55:17	Where did Rohan attend college?	Carnegie Mellon	california	28.284	40	0	0	rohan	test	NoFeedback	UserTiming	B	Restudy	disfluent	
A2AX0C0MGNR1UW	fajci1	1	8	2018-04-16 03:55:40	What were Rohan’s majors in college?	Political Science and Communications	ploitical science and communication	21.966	95.774647887324	1	0	rohan	test	NoFeedback	UserTiming	B	Restudy	disfluent	
A2AX0C0MGNR1UW	fajci1	1	9	2018-04-16 04:00:48	<iframe width="560" height="315" src="https://www.youtube.com/embed/DC2xi-PQ6Xg?rel=0&amp;showinfo=0" frameborder="0" allow="autoplay; encrypted-media" allowfullscreen></iframe>	na		307.902	0	0	0	isabella	EmbededVideo	NoFeedback	UserTiming	A	watchingVideo	disfluent	
A2AX0C0MGNR1UW	fajci1	1	10	2018-04-16 04:01:09	Where does Alice attend college?	University of Pennsylvania	wisconsin	20.73	34.285714285714	0	0	isabella	test	NoFeedback	UserTiming	B	Restudy	disfluent	
A2AX0C0MGNR1UW	fajci1	1	11	2018-04-16 04:02:15	What is Alice’s major?	Science, Technology, and Society	science technology and society	65.975	96.774193548387	1	0	isabella	test	NoFeedback	UserTiming	B	Restudy	disfluent	
A2AX0C0MGNR1UW	fajci1	1	12	2018-04-16 04:02:42	Where is Alice from?	Maine	maine	25.929	100	1	1	isabella	test	NoFeedback	UserTiming	B	Restudy	disfluent	
A2AX0C0MGNR1UW	fajci1	1	13	2018-04-16 04:03:31	<iframe width="560" height="315" src="https://www.youtube.com/embed/nwIuZNSKcDo?rel=0&amp;showinfo=0" frameborder="0" allow="autoplay; encrypted-media" allowfullscreen></iframe>	na		49.233	0	0	0	shaun	EmbededVideo	NoFeedback	UserTiming	A	watchingVideo	fluent	
A2AX0C0MGNR1UW	fajci1	1	14	2018-04-16 04:03:40	Where was Lanre born?	Wisconsin	wisconsin	8.6	100	1	1	shaun	test	NoFeedback	UserTiming	B	Restudy	fluent	
A2AX0C0MGNR1UW	fajci1	1	15	2018-04-16 04:04:01	What college does Lanre attend?	Princeton	prince	20.9	80	1	0	shaun	test	NoFeedback	UserTiming	B	Restudy	fluent	
A2AX0C0MGNR1UW	fajci1	1	16	2018-04-16 04:05:38	Where did Lanre intern last summer?	ACLU	aclu i think	97.196	50	0	0	shaun	test	NoFeedback	UserTiming	B	Restudy	fluent	
A2AX0C0MGNR1UW	fajci1	1	17	2018-04-16 04:05:42				3.029	0	0	1		StepOut	NA	NA	soStudy.html	NA	
A2AX0C0MGNR1UW	fajci1	1	18	2018-04-16 04:05:51	Alicia	na	2	9.173	0	0	0	rachel	JOL	NoFeedback	UserTiming	C	hireRanking	fluent	
A2AX0C0MGNR1UW	fajci1	1	19	2018-04-16 04:05:54	Rohan	na	3	3.043	0	0	0	ashish	JOL	NoFeedback	UserTiming	C	hireRanking	disfluent	
A2AX0C0MGNR1UW	fajci1	1	20	2018-04-16 04:05:58	Alice	na	4	3.145	0	0	0	isabella	JOL	NoFeedback	UserTiming	C	hireRanking	disfluent	
A2AX0C0MGNR1UW	fajci1	1	21	2018-04-16 04:06:01	Lanre	na	1	3.135	0	0	0	shaun	JOL	NoFeedback	UserTiming	C	hireRanking	fluent	
A2AX0C0MGNR1UW	fajci1	1	22	2018-04-16 04:06:04				2.544	0	0	1		StepOut	NA	NA	soTest.html	NA	
A2AX0C0MGNR1UW	fajci1	1	23	2018-04-16 04:06:10	Alicia	na	2	5.786	0	0	0	rachel	pleasantness	NoFeedback	UserTiming	C	likeRanking	fluent	
A2AX0C0MGNR1UW	fajci1	1	24	2018-04-16 04:06:13	Rohan	na	3	3.336	0	0	0	ashish	pleasantness	NoFeedback	UserTiming	C	likeRanking	disfluent	
A2AX0C0MGNR1UW	fajci1	1	25	2018-04-16 04:06:17	Alice	na	4	3.168	0	0	0	isabella	pleasantness	NoFeedback	UserTiming	C	likeRanking	disfluent	
A2AX0C0MGNR1UW	fajci1	1	26	2018-04-16 04:06:22	Lanre	na	1	5.016	0	0	0	shaun	pleasantness	NoFeedback	UserTiming	C	likeRanking	fluent	
A2AX0C0MGNR1UW	fajci1	1	ExtraInfo_FQ1	2018-04-16 04:06:29	6.147	Smooth	Stimuli1.txt	Order1.txt
A2AX0C0MGNR1UW	fajci1	1	ExtraInfo_FQ2	2018-04-16 04:06:32	3.337	Naive	Stimuli1.txt	Order1.txt
A2AX0C0MGNR1UW	fajci1	1	ExtraInfo_All	2018-04-16 04:06:32	NA	Male	65	Bachelors degree	Fluent	usa	Smooth	Naive	Stimuli1.txt	Order1.txt	http://pincub.com/fajci/login.php?username=A2AX0C0MGNR1UW&sessionnum=2
