UserID1	Experiment1	SessionNum1	Trial1	Date1	Question1	Answer1	Response1	RT1	LenScore1	LenAcc1	StrictAcc1	Info1	trialtype1	Feedback1	DurationControl1	Group1	rep#	RI cond1	block1	UserID2	Experiment2	SessionNum2	Trial2	Date2	Question2	Answer2	Response2	RT2	LenScore2	LenAcc2	StrictAcc2	Info2	trialtype2	Feedback2	DurationControl2	Group2	rep#	RI cond2	block2	UserID3	Experiment3	SessionNum3	Trial3	Date3	Question3	Answer3	Response3	RT3	LenScore3	LenAcc3	StrictAcc3	Info3	trialtype3	Feedback3	DurationControl3	Group3	rep#	RI cond3	block3	Interval	Left Final Test BlankAZMOA8ONG0D2U	temp1	1	48	8/8/17 7:03	mother	kiss	kiss	2.258	100	1	1	bl	copy	Feedback	UserTiming 	bl	1	A	3a	AZMOA8ONG0D2U	temp1	1	53	8/8/17 7:03	mother	kiss	kiss	2.388	100	1	1	bl	test	NoFeedback	UserTiming 	bl	2	A	3a	AZMOA8ONG0D2U	temp1	1	54	8/8/17 7:03	mother	kiss	kiss	2.169	100	1	1	bl	test	NoFeedback	UserTiming 	bl	3	A	3a	0	0AZMOA8ONG0D2U	temp1	1	2	8/8/17 6:59	thorn	cash	cash	5.664	100	1	1	bl	copy	Feedback	UserTiming 	bl	1	A	1a	AZMOA8ONG0D2U	temp1	1	5	8/8/17 6:59	thorn	cash	cash	2.79	100	1	1	bl	test	NoFeedback	UserTiming 	bl	2	A	1a	AZMOA8ONG0D2U	temp1	1	6	8/8/17 6:59	thorn	cash	cash	2.709	100	1	1	bl	test	NoFeedback	UserTiming 	bl	3	A	1a	0	0AZMOA8ONG0D2U	temp1	1	72	8/8/17 7:05	oven	automobile	automobile	3.425	100	1	1	bl	copy	Feedback	UserTiming 	bl	1	C	5a	AZMOA8ONG0D2U	temp1	1	75	8/8/17 7:05	oven	automobile	automobile	5.679	100	1	1	bl	test	NoFeedback	UserTiming 	bl	2	C	5a	AZMOA8ONG0D2U	temp1	1	78	8/8/17 7:05	oven	automobile	automobile	5.119	100	1	1	bl	test	NoFeedback	UserTiming 	bl	3	C	5a	2	0AZMOA8ONG0D2U	temp1	1	65	8/8/17 7:04	camp	frog	frog	2.459	100	1	1	bl	copy	Feedback	UserTiming 	bl	1	C	4b	AZMOA8ONG0D2U	temp1	1	68	8/8/17 7:04	camp	frog	frog	2.45	100	1	1	bl	test	NoFeedback	UserTiming 	bl	2	C	4b	AZMOA8ONG0D2U	temp1	1	71	8/8/17 7:05	camp	frog	frog	3.5	100	1	1	bl	test	NoFeedback	UserTiming 	bl	3	C	4b	2	0AZMOA8ONG0D2U	temp1	1	49	8/8/17 7:03	professor	army	army	2.448	100	1	1	bl	copy	Feedback	UserTiming 	bl	1	C	3a	AZMOA8ONG0D2U	temp1	1	52	8/8/17 7:03	professor	army	army	5.93	100	1	1	bl	test	NoFeedback	UserTiming 	bl	2	C	3a	AZMOA8ONG0D2U	temp1	1	55	8/8/17 7:03	professor	army	army	2.151	100	1	1	bl	test	NoFeedback	UserTiming 	bl	3	C	3a	2	0AZMOA8ONG0D2U	temp1	1	24	8/8/17 7:01	mule	infant	infant	3.174	100	1	1	bl	copy	Feedback	UserTiming 	bl	1	C	2a	AZMOA8ONG0D2U	temp1	1	27	8/8/17 7:01	mule	infant	infant	3.285	100	1	1	bl	test	NoFeedback	UserTiming 	bl	2	C	2a	AZMOA8ONG0D2U	temp1	1	30	8/8/17 7:01	mule	infant	infant	3.23	100	1	1	bl	test	NoFeedback	UserTiming 	bl	3	C	2a	2	0AZMOA8ONG0D2U	temp1	1	1	8/8/17 6:59	refrigerator	factory	factory	6.107	100	1	1	bl	copy	Feedback	UserTiming 	bl	1	C	1a	AZMOA8ONG0D2U	temp1	1	4	8/8/17 6:59	refrigerator	factory	factory	3.882	100	1	1	bl	test	NoFeedback	UserTiming 	bl	2	C	1a	AZMOA8ONG0D2U	temp1	1	7	8/8/17 6:59	refrigerator	factory	factory	4.454	100	1	1	bl	test	NoFeedback	UserTiming 	bl	3	C	1a	2	0AZMOA8ONG0D2U	temp1	1	76	8/8/17 7:05	alligator	bottle	bottle	2.709	100	1	1	bl	copy	Feedback	UserTiming 	bl	1	E	5a	AZMOA8ONG0D2U	temp1	1	80	8/8/17 7:05	alligator	bottle	bottle	3.186	100	1	1	bl	test	NoFeedback	UserTiming 	bl	2	E	5a	AZMOA8ONG0D2U	temp1	1	88	8/8/17 7:06	alligator	bottle	bottle	3.337	100	1	1	bl	test	NoFeedback	UserTiming 	bl	3	E	5a	7	0AZMOA8ONG0D2U	temp1	1	58	8/8/17 7:04	corn	cattle	cattle	3.238	100	1	1	bl	copy	Feedback	UserTiming 	bl	1	E	4a	AZMOA8ONG0D2U	temp1	1	61	8/8/17 7:04	corn	cattle	cattle	2.56	100	1	1	bl	test	NoFeedback	UserTiming 	bl	2	E	4a	AZMOA8ONG0D2U	temp1	1	69	8/8/17 7:04	corn	cattle	cattle	2.669	100	1	1	bl	test	NoFeedback	UserTiming 	bl	3	E	4a	7	0AZMOA8ONG0D2U	temp1	1	3	8/8/17 6:59	dust	vehicle	vehicle	3.051	100	1	1	bl	copy	Feedback	UserTiming 	bl	1	E	1a	AZMOA8ONG0D2U	temp1	1	8	8/8/17 6:59	dust	vehicle	vehicle	5.581	100	1	1	bl	test	NoFeedback	UserTiming 	bl	2	E	1a	AZMOA8ONG0D2U	temp1	1	16	8/8/17 7:00	dust	vehicle	vehicle	4.041	100	1	1	bl	test	NoFeedback	UserTiming 	bl	3	E	1a	7	0AZMOA8ONG0D2U	temp1	1	81	8/8/17 7:05	board	tobacco	tobacco	3.759	100	1	1	bl	copy	Feedback	UserTiming 	bl	1	G	5a	AZMOA8ONG0D2U	temp1	1	85	8/8/17 7:06	board	tobacco	tobacco	4.131	100	1	1	bl	test	NoFeedback	UserTiming 	bl	2	G	5a	AZMOA8ONG0D2U	temp1	1	107	8/8/17 7:08	board	tobacco	tobacco	4.756	100	1	1	bl	test	NoFeedback	UserTiming 	bl	3	G	5a	21	0AZMOA8ONG0D2U	temp1	1	51	8/8/17 7:03	valley	alcohol	alcohol	4.805	100	1	1	bl	copy	Feedback	UserTiming 	bl	1	G	3a	AZMOA8ONG0D2U	temp1	1	57	8/8/17 7:04	valley	alcohol	alcohol	4.212	100	1	1	bl	test	NoFeedback	UserTiming 	bl	2	G	3a	AZMOA8ONG0D2U	temp1	1	79	8/8/17 7:05	valley	alcohol	alcohol	3.013	100	1	1	bl	test	NoFeedback	UserTiming 	bl	3	G	3a	21	0AZMOA8ONG0D2U	temp1	1	10	8/8/17 6:59	trumpet	house	house	2.823	100	1	1	bl	copy	Feedback	UserTiming 	bl	1	G	1b	AZMOA8ONG0D2U	temp1	1	14	8/8/17 7:00	trumpet	house	house	2.69	100	1	1	bl	test	NoFeedback	UserTiming 	bl	2	G	1b	AZMOA8ONG0D2U	temp1	1	36	8/8/17 7:02	trumpet	house	houswe	5.037	90.90909091	1	0	bl	test	NoFeedback	UserTiming 	bl	3	G	1b	21	0AZMOA8ONG0D2U	temp1	1	42	8/8/17 7:02	jury	butcher	butcher	3.247	100	1	1	bl	copy	Feedback	UserTiming 	bl	1	I	6b	AZMOA8ONG0D2U	temp1	1	46	8/8/17 7:03	jury	butcher	butcher	3.561	100	1	1	bl	test	NoFeedback	UserTiming 	bl	2	I	6b	AZMOA8ONG0D2U	temp1	1	106	8/8/17 7:08	jury	butcher	butcher	3.412	100	1	1	bl	test	NoFeedback	UserTiming 	bl	3	I	6b	59	0AZMOA8ONG0D2U	temp1	1	32	8/8/17 7:01	village	prairie	prairie	3.985	100	1	1	bl	copy	Feedback	UserTiming 	bl	1	I	4b	AZMOA8ONG0D2U	temp1	1	35	8/8/17 7:02	village	prairie	prairie	3.341	100	1	1	bl	test	NoFeedback	UserTiming 	bl	2	I	4b	AZMOA8ONG0D2U	temp1	1	95	8/8/17 7:07	village	prairie	alcohol	40.242	14.28571429	0	0	bl	test	NoFeedback	UserTiming 	bl	3	I	4b	59	0AZMOA8ONG0D2U	temp1	1	21	8/8/17 7:01	slipper	timepiece	timepiece	3.849	100	1	1	bl	copy	Feedback	UserTiming 	bl	1	I	3b	AZMOA8ONG0D2U	temp1	1	23	8/8/17 7:01	slipper	timepiece	timepiece	3.286	100	1	1	bl	test	NoFeedback	UserTiming 	bl	2	I	3b	AZMOA8ONG0D2U	temp1	1	83	8/8/17 7:06	slipper	timepiece	timepiece	5.571	100	1	1	bl	test	NoFeedback	UserTiming 	bl	3	I	3b	59	0AZMOA8ONG0D2U	temp1	1	20	8/8/17 7:00	bullet	bagpipe	bagpipe	3.488	100	1	1	bl	copy	Feedback	UserTiming 	bl	1	I	2b	AZMOA8ONG0D2U	temp1	1	22	8/8/17 7:01	bullet	bagpipe	bagpipe	3.137	100	1	1	bl	test	NoFeedback	UserTiming 	bl	2	I	2b	AZMOA8ONG0D2U	temp1	1	82	8/8/17 7:05	bullet	bagpipe	bagpipe	3.789	100	1	1	bl	test	NoFeedback	UserTiming 	bl	3	I	2b	59	0AZMOA8ONG0D2U	temp1	1	43	8/8/17 7:02	daffodil	corpse	corpse	2.897	100	1	1	bl	copy	Feedback	UserTiming 	bl	1	J	6b	AZMOA8ONG0D2U	temp1	1	47	8/8/17 7:03	daffodil	corpse	corpse	2.748	100	1	1	bl	test	NoFeedback	UserTiming 	bl	2	J	6b	AZMOA8ONG0D2U	temp1	1	147	8/8/17 7:11	daffodil	corpse	corpse	2.783	100	1	1	bl	test	NoFeedback	UserTiming 	bl	3	J	6b	99	0AZMOA8ONG0D2U	temp1	1	13	8/8/17 7:00	avalanche	animal	animal	4.887	100	1	1	bl	copy	Feedback	UserTiming 	bl	1	J	2b	AZMOA8ONG0D2U	temp1	1	18	8/8/17 7:00	avalanche	animal	animal	3.142	100	1	1	bl	test	NoFeedback	UserTiming 	bl	2	J	2b	AZMOA8ONG0D2U	temp1	1	118	8/8/17 7:09	avalanche	animal	animal	8.128	100	1	1	bl	test	NoFeedback	UserTiming 	bl	3	J	2b	99	0AZMOA8ONG0D2U	temp1	1	9	8/8/17 6:59	locker	ticket	ticket	3.049	100	1	1	bl	copy	Feedback	UserTiming 	bl	1	J	1b	AZMOA8ONG0D2U	temp1	1	12	8/8/17 7:00	locker	ticket	ticket	4.752	100	1	1	bl	test	NoFeedback	UserTiming 	bl	2	J	1b	AZMOA8ONG0D2U	temp1	1	112	8/8/17 7:08	locker	ticket		3.091	0	0	0	bl	test	NoFeedback	UserTiming 	bl	3	J	1b	99	1AYYBMS4XQJ9AP	temp1	1	70	8/8/17 8:39	lemon	monk	monk	5.001	100	1	1	bl	copy	Feedback	UserTiming 	bl	1	A	5a	AYYBMS4XQJ9AP	temp1	1	73	8/8/17 8:40	lemon	monk	monk	5.377	100	1	1	bl	test	NoFeedback	UserTiming 	bl	2	A	5a	AYYBMS4XQJ9AP	temp1	1	74	8/8/17 8:40	lemon	monk	monk	4.884	100	1	1	bl	test	NoFeedback	UserTiming 	bl	3	A	5a	0	0AYYBMS4XQJ9AP	temp1	1	63	8/8/17 8:39	valley	alcohol	alcohol	4.852	100	1	1	bl	copy	Feedback	UserTiming 	bl	1	A	4b	AYYBMS4XQJ9AP	temp1	1	66	8/8/17 8:39	valley	alcohol	alcohol	4.609	100	1	1	bl	test	NoFeedback	UserTiming 	bl	2	A	4b	AYYBMS4XQJ9AP	temp1	1	67	8/8/17 8:39	valley	alcohol	alcohol	5.378	100	1	1	bl	test	NoFeedback	UserTiming 	bl	3	A	4b	0	0AYYBMS4XQJ9AP	temp1	1	25	8/8/17 8:35	professor	army	army	4.908	100	1	1	bl	copy	Feedback	UserTiming 	bl	1	A	2a	AYYBMS4XQJ9AP	temp1	1	28	8/8/17 8:35	professor	army	army	4.671	100	1	1	bl	test	NoFeedback	UserTiming 	bl	2	A	2a	AYYBMS4XQJ9AP	temp1	1	29	8/8/17 8:35	professor	army	army	4.692	100	1	1	bl	test	NoFeedback	UserTiming 	bl	3	A	2a	0	0AYYBMS4XQJ9AP	temp1	1	2	8/8/17 8:32	musician	king	king	4.648	100	1	1	bl	copy	Feedback	UserTiming 	bl	1	A	1a	AYYBMS4XQJ9AP	temp1	1	5	8/8/17 8:32	musician	king	king	4.882	100	1	1	bl	test	NoFeedback	UserTiming 	bl	2	A	1a	AYYBMS4XQJ9AP	temp1	1	6	8/8/17 8:32	musician	king	king	4.761	100	1	1	bl	test	NoFeedback	UserTiming 	bl	3	A	1a	0	0AYYBMS4XQJ9AP	temp1	1	65	8/8/17 8:39	maiden	banker	banker	5.022	100	1	1	bl	copy	Feedback	UserTiming 	bl	1	C	4b	AYYBMS4XQJ9AP	temp1	1	68	8/8/17 8:39	maiden	banker	banker	4.85	100	1	1	bl	test	NoFeedback	UserTiming 	bl	2	C	4b	AYYBMS4XQJ9AP	temp1	1	71	8/8/17 8:40	maiden	banker	oven	22.558	20	0	0	bl	test	NoFeedback	UserTiming 	bl	3	C	4b	2	0AYYBMS4XQJ9AP	temp1	1	49	8/8/17 8:37	saloon	cradle	cradle	4.659	100	1	1	bl	copy	Feedback	UserTiming 	bl	1	C	3a	AYYBMS4XQJ9AP	temp1	1	52	8/8/17 8:38	saloon	cradle	cradle	4.751	100	1	1	bl	test	NoFeedback	UserTiming 	bl	2	C	3a	AYYBMS4XQJ9AP	temp1	1	55	8/8/17 8:38	saloon	cradle	cradle	8.517	100	1	1	bl	test	NoFeedback	UserTiming 	bl	3	C	3a	2	0AYYBMS4XQJ9AP	temp1	1	1	8/8/17 8:32	board	tobacco	tobacco	5.885	100	1	1	bl	copy	Feedback	UserTiming 	bl	1	C	1a	AYYBMS4XQJ9AP	temp1	1	4	8/8/17 8:32	board	tobacco	tobacco	5.059	100	1	1	bl	test	NoFeedback	UserTiming 	bl	2	C	1a	AYYBMS4XQJ9AP	temp1	1	7	8/8/17 8:33	board	tobacco	tobacco	4.666	100	1	1	bl	test	NoFeedback	UserTiming 	bl	3	C	1a	2	0AYYBMS4XQJ9AP	temp1	1	87	8/8/17 8:43	slipper	timepiece	timepiece	78.446	100	1	1	bl	copy	Feedback	UserTiming 	bl	1	E	6a	AYYBMS4XQJ9AP	temp1	1	91	8/8/17 8:43	slipper	timepiece	timepiece	4.908	100	1	1	bl	test	NoFeedback	UserTiming 	bl	2	E	6a	AYYBMS4XQJ9AP	temp1	1	99	8/8/17 8:45	slipper	timepiece	wife	4.63	30.76923077	0	0	bl	test	NoFeedback	UserTiming 	bl	3	E	6a	7	0AYYBMS4XQJ9AP	temp1	1	76	8/8/17 8:40	locker	ticket	ticket	4.788	100	1	1	bl	copy	Feedback	UserTiming 	bl	1	E	5a	AYYBMS4XQJ9AP	temp1	1	80	8/8/17 8:41	locker	ticket	ticket	5.023	100	1	1	bl	test	NoFeedback	UserTiming 	bl	2	E	5a	AYYBMS4XQJ9AP	temp1	1	88	8/8/17 8:43	locker	ticket	ticket	8.71	100	1	1	bl	test	NoFeedback	UserTiming 	bl	3	E	5a	7	0AYYBMS4XQJ9AP	temp1	1	50	8/8/17 8:37	spray	apple	apple	4.807	100	1	1	bl	copy	Feedback	UserTiming 	bl	1	E	3a	AYYBMS4XQJ9AP	temp1	1	56	8/8/17 8:38	spray	apple	apple	4.81	100	1	1	bl	test	NoFeedback	UserTiming 	bl	2	E	3a	AYYBMS4XQJ9AP	temp1	1	64	8/8/17 8:39	spray	apple	apple	4.731	100	1	1	bl	test	NoFeedback	UserTiming 	bl	3	E	3a	7	0AYYBMS4XQJ9AP	temp1	1	26	8/8/17 8:35	lark	strawberry	strawberry	4.731	100	1	1	bl	copy	Feedback	UserTiming 	bl	1	E	2a	AYYBMS4XQJ9AP	temp1	1	31	8/8/17 8:35	lark	strawberry	strawberry	6.928	100	1	1	bl	test	NoFeedback	UserTiming 	bl	2	E	2a	AYYBMS4XQJ9AP	temp1	1	39	8/8/17 8:36	lark	strawberry	strawberry	4.826	100	1	1	bl	test	NoFeedback	UserTiming 	bl	3	E	2a	7	0AYYBMS4XQJ9AP	temp1	1	3	8/8/17 8:32	refrigerator	factory	factory	5.327	100	1	1	bl	copy	Feedback	UserTiming 	bl	1	E	1a	AYYBMS4XQJ9AP	temp1	1	8	8/8/17 8:33	refrigerator	factory	factory	4.708	100	1	1	bl	test	NoFeedback	UserTiming 	bl	2	E	1a	AYYBMS4XQJ9AP	temp1	1	16	8/8/17 8:33	refrigerator	factory	factory	4.63	100	1	1	bl	test	NoFeedback	UserTiming 	bl	3	E	1a	7	0AYYBMS4XQJ9AP	temp1	1	51	8/8/17 8:38	officer	piano	piano	4.66	100	1	1	bl	copy	Feedback	UserTiming 	bl	1	G	3a	AYYBMS4XQJ9AP	temp1	1	57	8/8/17 8:38	officer	piano	piano	4.672	100	1	1	bl	test	NoFeedback	UserTiming 	bl	2	G	3a	AYYBMS4XQJ9AP	temp1	1	79	8/8/17 8:41	officer	piano	piano	5.388	100	1	1	bl	test	NoFeedback	UserTiming 	bl	3	G	3a	21	0AYYBMS4XQJ9AP	temp1	1	34	8/8/17 8:36	footwear	acrobat	acrobat	4.73	100	1	1	bl	copy	Feedback	UserTiming 	bl	1	G	2b	AYYBMS4XQJ9AP	temp1	1	38	8/8/17 8:36	footwear	acrobat	acrobat	4.906	100	1	1	bl	test	NoFeedback	UserTiming 	bl	2	G	2b	AYYBMS4XQJ9AP	temp1	1	60	8/8/17 8:39	footwear	acrobat	acrobat	4.867	100	1	1	bl	test	NoFeedback	UserTiming 	bl	3	G	2b	21	0AYYBMS4XQJ9AP	temp1	1	10	8/8/17 8:33	tank	flood	flood	5.276	100	1	1	bl	copy	Feedback	UserTiming 	bl	1	G	1b	AYYBMS4XQJ9AP	temp1	1	14	8/8/17 8:33	tank	flood	flood	4.698	100	1	1	bl	test	NoFeedback	UserTiming 	bl	2	G	1b	AYYBMS4XQJ9AP	temp1	1	36	8/8/17 8:36	tank	flood	flood	4.765	100	1	1	bl	test	NoFeedback	UserTiming 	bl	3	G	1b	21	0AYYBMS4XQJ9AP	temp1	1	42	8/8/17 8:37	cottage	letter	letter	4.631	100	1	1	bl	copy	Feedback	UserTiming 	bl	1	I	6b	AYYBMS4XQJ9AP	temp1	1	46	8/8/17 8:37	cottage	letter	letter	4.776	100	1	1	bl	test	NoFeedback	UserTiming 	bl	2	I	6b	AYYBMS4XQJ9AP	temp1	1	106	8/8/17 8:45	cottage	letter	fireplace	15.201	13.33333333	0	0	bl	test	NoFeedback	UserTiming 	bl	3	I	6b	59	0AYYBMS4XQJ9AP	temp1	1	40	8/8/17 8:36	swamp	macaroni	macaroni	4.837	100	1	1	bl	copy	Feedback	UserTiming 	bl	1	I	5b	AYYBMS4XQJ9AP	temp1	1	44	8/8/17 8:37	swamp	macaroni	macaroni	5.101	100	1	1	bl	test	NoFeedback	UserTiming 	bl	2	I	5b	AYYBMS4XQJ9AP	temp1	1	104	8/8/17 8:45	swamp	macaroni	village	5.59	13.33333333	0	0	bl	test	NoFeedback	UserTiming 	bl	3	I	5b	59	0AYYBMS4XQJ9AP	temp1	1	21	8/8/17 8:34	daffodil	corpse	corpse	4.657	100	1	1	bl	copy	Feedback	UserTiming 	bl	1	I	3b	AYYBMS4XQJ9AP	temp1	1	23	8/8/17 8:34	daffodil	corpse	corpse	5.144	100	1	1	bl	test	NoFeedback	UserTiming 	bl	2	I	3b	AYYBMS4XQJ9AP	temp1	1	83	8/8/17 8:41	daffodil	corpse	corpse	5.647	100	1	1	bl	test	NoFeedback	UserTiming 	bl	3	I	3b	59	0AYYBMS4XQJ9AP	temp1	1	20	8/8/17 8:34	village	prairie	prairie	5.034	100	1	1	bl	copy	Feedback	UserTiming 	bl	1	I	2b	AYYBMS4XQJ9AP	temp1	1	22	8/8/17 8:34	village	prairie	prarie	9.443	92.30769231	1	0	bl	test	NoFeedback	UserTiming 	bl	2	I	2b	AYYBMS4XQJ9AP	temp1	1	82	8/8/17 8:41	village	prairie	prarie	5.591	92.30769231	1	0	bl	test	NoFeedback	UserTiming 	bl	3	I	2b	59	0AYYBMS4XQJ9AP	temp1	1	11	8/8/17 8:33	door	insect	insect	5.432	100	1	1	bl	copy	Feedback	UserTiming 	bl	1	I	1b	AYYBMS4XQJ9AP	temp1	1	17	8/8/17 8:34	door	insect	insect	4.702	100	1	1	bl	test	NoFeedback	UserTiming 	bl	2	I	1b	AYYBMS4XQJ9AP	temp1	1	77	8/8/17 8:40	door	insect	insect	4.875	100	1	1	bl	test	NoFeedback	UserTiming 	bl	3	I	1b	59	0AYYBMS4XQJ9AP	temp1	1	41	8/8/17 8:36	mother	kiss	kiss	4.645	100	1	1	bl	copy	Feedback	UserTiming 	bl	1	J	5b	AYYBMS4XQJ9AP	temp1	1	45	8/8/17 8:37	mother	kiss	kiss	4.662	100	1	1	bl	test	NoFeedback	UserTiming 	bl	2	J	5b	AYYBMS4XQJ9AP	temp1	1	145	8/8/17 8:50	mother	kiss	kiss	4.616	100	1	1	bl	test	NoFeedback	UserTiming 	bl	3	J	5b	99	0AYYBMS4XQJ9AP	temp1	1	33	8/8/17 8:36	dust	vehicle	vehicle	4.794	100	1	1	bl	copy	Feedback	UserTiming 	bl	1	J	4b	AYYBMS4XQJ9AP	temp1	1	37	8/8/17 8:36	dust	vehicle	vehicle	10.316	100	1	1	bl	test	NoFeedback	UserTiming 	bl	2	J	4b	AYYBMS4XQJ9AP	temp1	1	137	8/8/17 8:49	dust	vehicle	vehicle	7.493	100	1	1	bl	test	NoFeedback	UserTiming 	bl	3	J	4b	99	0AYYBMS4XQJ9AP	temp1	1	15	8/8/17 8:33	elephant	candy	candy	4.906	100	1	1	bl	copy	Feedback	UserTiming 	bl	1	J	3b	AYYBMS4XQJ9AP	temp1	1	19	8/8/17 8:34	elephant	candy	candy	4.719	100	1	1	bl	test	NoFeedback	UserTiming 	bl	2	J	3b	AYYBMS4XQJ9AP	temp1	1	119	8/8/17 8:47	elephant	candy	candy	4.629	100	1	1	bl	test	NoFeedback	UserTiming 	bl	3	J	3b	99	0AYYBMS4XQJ9AP	temp1	1	13	8/8/17 8:33	trumpet	house	house	4.638	100	1	1	bl	copy	Feedback	UserTiming 	bl	1	J	2b	AYYBMS4XQJ9AP	temp1	1	18	8/8/17 8:34	trumpet	house	house	6.119	100	1	1	bl	test	NoFeedback	UserTiming 	bl	2	J	2b	AYYBMS4XQJ9AP	temp1	1	118	8/8/17 8:47	trumpet	house	corpse	11.832	54.54545455	0	0	bl	test	NoFeedback	UserTiming 	bl	3	J	2b	99	0AYYBMS4XQJ9AP	temp1	1	9	8/8/17 8:33	jury	butcher	butcher	4.886	100	1	1	bl	copy	Feedback	UserTiming 	bl	1	J	1b	AYYBMS4XQJ9AP	temp1	1	12	8/8/17 8:33	jury	butcher	butcher	4.628	100	1	1	bl	test	NoFeedback	UserTiming 	bl	2	J	1b	AYYBMS4XQJ9AP	temp1	1	112	8/8/17 8:46	jury	butcher	thorn	8.244	50	0	0	bl	test	NoFeedback	UserTiming 	bl	3	J	1b	99	0AXR8QNGNBF1DU	temp1	1	93	8/8/17 8:16	oven	automobile	automobile	7.054	100	1	1	bl	copy	Feedback	UserTiming 	bl	1	A	6a	AXR8QNGNBF1DU	temp1	1	96	8/8/17 8:17	oven	automobile	automobile	6.231	100	1	1	bl	test	NoFeedback	UserTiming 	bl	2	A	6a	AXR8QNGNBF1DU	temp1	1	97	8/8/17 8:17	oven	automobile	automobile	7.974	100	1	1	bl	test	NoFeedback	UserTiming 	bl	3	A	6a	0	0AXR8QNGNBF1DU	temp1	1	70	8/8/17 8:14	sunburn	fisherman	fisherman	6.374	100	1	1	bl	copy	Feedback	UserTiming 	bl	1	A	5a	AXR8QNGNBF1DU	temp1	1	73	8/8/17 8:14	sunburn	fisherman	fisherman	3.666	100	1	1	bl	test	NoFeedback	UserTiming 	bl	2	A	5a	AXR8QNGNBF1DU	temp1	1	74	8/8/17 8:14	sunburn	fisherman	fisherman	3.521	100	1	1	bl	test	NoFeedback	UserTiming 	bl	3	A	5a	0	0AXR8QNGNBF1DU	temp1	1	63	8/8/17 8:13	officer	piano	piano	5.569	100	1	1	bl	copy	Feedback	UserTiming 	bl	1	A	4b	AXR8QNGNBF1DU	temp1	1	66	8/8/17 8:13	officer	piano	piano	5.428	100	1	1	bl	test	NoFeedback	UserTiming 	bl	2	A	4b	AXR8QNGNBF1DU	temp1	1	67	8/8/17 8:13	officer	piano	piano	3.321	100	1	1	bl	test	NoFeedback	UserTiming 	bl	3	A	4b	0	0AXR8QNGNBF1DU	temp1	1	48	8/8/17 8:11	musician	king	king	5.696	100	1	1	bl	copy	Feedback	UserTiming 	bl	1	A	3a	AXR8QNGNBF1DU	temp1	1	53	8/8/17 8:12	musician	king	king	6.605	100	1	1	bl	test	NoFeedback	UserTiming 	bl	2	A	3a	AXR8QNGNBF1DU	temp1	1	54	8/8/17 8:12	musician	king	king	3.131	100	1	1	bl	test	NoFeedback	UserTiming 	bl	3	A	3a	0	0AXR8QNGNBF1DU	temp1	1	25	8/8/17 8:07	saloon	cradle	cradle	7.371	100	1	1	bl	copy	Feedback	UserTiming 	bl	1	A	2a	AXR8QNGNBF1DU	temp1	1	28	8/8/17 8:08	saloon	cradle	cradle	6.422	100	1	1	bl	test	NoFeedback	UserTiming 	bl	2	A	2a	AXR8QNGNBF1DU	temp1	1	29	8/8/17 8:08	saloon	cradle	cradle	6.081	100	1	1	bl	test	NoFeedback	UserTiming 	bl	3	A	2a	0	0AXR8QNGNBF1DU	temp1	1	2	8/8/17 8:02	professor	army	army	5.149	100	1	1	bl	copy	Feedback	UserTiming 	bl	1	A	1a	AXR8QNGNBF1DU	temp1	1	5	8/8/17 8:03	professor	army	army	5.653	100	1	1	bl	test	NoFeedback	UserTiming 	bl	2	A	1a	AXR8QNGNBF1DU	temp1	1	6	8/8/17 8:03	professor	army	army	7.606	100	1	1	bl	test	NoFeedback	UserTiming 	bl	3	A	1a	0	0AXR8QNGNBF1DU	temp1	1	86	8/8/17 8:16	cottage	letter	letter	5.852	100	1	1	bl	copy	Feedback	UserTiming 	bl	1	C	6a	AXR8QNGNBF1DU	temp1	1	89	8/8/17 8:16	cottage	letter	letter	4.759	100	1	1	bl	test	NoFeedback	UserTiming 	bl	2	C	6a	AXR8QNGNBF1DU	temp1	1	92	8/8/17 8:16	cottage	letter	letter	3.438	100	1	1	bl	test	NoFeedback	UserTiming 	bl	3	C	6a	2	0AXR8QNGNBF1DU	temp1	1	72	8/8/17 8:14	locker	ticket	ticket	6.177	100	1	1	bl	copy	Feedback	UserTiming 	bl	1	C	5a	AXR8QNGNBF1DU	temp1	1	75	8/8/17 8:14	locker	ticket	ticket	3.427	100	1	1	bl	test	NoFeedback	UserTiming 	bl	2	C	5a	AXR8QNGNBF1DU	temp1	1	78	8/8/17 8:15	locker	ticket	ticket	3.084	100	1	1	bl	test	NoFeedback	UserTiming 	bl	3	C	5a	2	0AXR8QNGNBF1DU	temp1	1	65	8/8/17 8:13	temple	flesh	flesh	5.62	100	1	1	bl	copy	Feedback	UserTiming 	bl	1	C	4b	AXR8QNGNBF1DU	temp1	1	68	8/8/17 8:14	temple	flesh	flesh	4.129	100	1	1	bl	test	NoFeedback	UserTiming 	bl	2	C	4b	AXR8QNGNBF1DU	temp1	1	71	8/8/17 8:14	temple	flesh	flesh	5.382	100	1	1	bl	test	NoFeedback	UserTiming 	bl	3	C	4b	2	0AXR8QNGNBF1DU	temp1	1	49	8/8/17 8:11	tank	flood	flood	8.636	100	1	1	bl	copy	Feedback	UserTiming 	bl	1	C	3a	AXR8QNGNBF1DU	temp1	1	52	8/8/17 8:12	tank	flood	flood	7.259	100	1	1	bl	test	NoFeedback	UserTiming 	bl	2	C	3a	AXR8QNGNBF1DU	temp1	1	55	8/8/17 8:12	tank	flood	flood	3.032	100	1	1	bl	test	NoFeedback	UserTiming 	bl	3	C	3a	2	0AXR8QNGNBF1DU	temp1	1	24	8/8/17 8:07	refrigerator	factory	factory	15.708	100	1	1	bl	copy	Feedback	UserTiming 	bl	1	C	2a	AXR8QNGNBF1DU	temp1	1	27	8/8/17 8:07	refrigerator	factory	factory	5.916	100	1	1	bl	test	NoFeedback	UserTiming 	bl	2	C	2a	AXR8QNGNBF1DU	temp1	1	30	8/8/17 8:08	refrigerator	factory	factory	6.076	100	1	1	bl	test	NoFeedback	UserTiming 	bl	3	C	2a	2	0AXR8QNGNBF1DU	temp1	1	1	8/8/17 8:02	microscope	ship	ship	5.457	100	1	1	bl	copy	Feedback	UserTiming 	bl	1	C	1a	AXR8QNGNBF1DU	temp1	1	4	8/8/17 8:03	microscope	ship	ship	5.915	100	1	1	bl	test	NoFeedback	UserTiming 	bl	2	C	1a	AXR8QNGNBF1DU	temp1	1	7	8/8/17 8:03	microscope	ship	ship	3.858	100	1	1	bl	test	NoFeedback	UserTiming 	bl	3	C	1a	2	0AXR8QNGNBF1DU	temp1	1	87	8/8/17 8:16	avalanche	animal	animal	5.933	100	1	1	bl	copy	Feedback	UserTiming 	bl	1	E	6a	AXR8QNGNBF1DU	temp1	1	91	8/8/17 8:16	avalanche	animal	animal	3.271	100	1	1	bl	test	NoFeedback	UserTiming 	bl	2	E	6a	AXR8QNGNBF1DU	temp1	1	99	8/8/17 8:17	avalanche	animal	animal	3.733	100	1	1	bl	test	NoFeedback	UserTiming 	bl	3	E	6a	7	0AXR8QNGNBF1DU	temp1	1	76	8/8/17 8:14	earth	nursery	nursery	4.472	100	1	1	bl	copy	Feedback	UserTiming 	bl	1	E	5a	AXR8QNGNBF1DU	temp1	1	80	8/8/17 8:15	earth	nursery	nursery	6.583	100	1	1	bl	test	NoFeedback	UserTiming 	bl	2	E	5a	AXR8QNGNBF1DU	temp1	1	88	8/8/17 8:16	earth	nursery	nursery	7.657	100	1	1	bl	test	NoFeedback	UserTiming 	bl	3	E	5a	7	0AXR8QNGNBF1DU	temp1	1	58	8/8/17 8:12	trumpet	house	house	5.674	100	1	1	bl	copy	Feedback	UserTiming 	bl	1	E	4a	AXR8QNGNBF1DU	temp1	1	61	8/8/17 8:13	trumpet	house	house	4.181	100	1	1	bl	test	NoFeedback	UserTiming 	bl	2	E	4a	AXR8QNGNBF1DU	temp1	1	69	8/8/17 8:14	trumpet	house	house	4.401	100	1	1	bl	test	NoFeedback	UserTiming 	bl	3	E	4a	7	0AXR8QNGNBF1DU	temp1	1	50	8/8/17 8:11	icebox	table	table	6.438	100	1	1	bl	copy	Feedback	UserTiming 	bl	1	E	3a	AXR8QNGNBF1DU	temp1	1	56	8/8/17 8:12	icebox	table	table	4.941	100	1	1	bl	test	NoFeedback	UserTiming 	bl	2	E	3a	AXR8QNGNBF1DU	temp1	1	64	8/8/17 8:13	icebox	table	table	3.294	100	1	1	bl	test	NoFeedback	UserTiming 	bl	3	E	3a	7	0AXR8QNGNBF1DU	temp1	1	26	8/8/17 8:07	door	insect	insect	9.481	100	1	1	bl	copy	Feedback	UserTiming 	bl	1	E	2a	AXR8QNGNBF1DU	temp1	1	31	8/8/17 8:08	door	insect	insect	6.358	100	1	1	bl	test	NoFeedback	UserTiming 	bl	2	E	2a	AXR8QNGNBF1DU	temp1	1	39	8/8/17 8:10	door	insect	insect	7.154	100	1	1	bl	test	NoFeedback	UserTiming 	bl	3	E	2a	7	0AXR8QNGNBF1DU	temp1	1	3	8/8/17 8:03	mule	infant	infant	32.607	100	1	1	bl	copy	Feedback	UserTiming 	bl	1	E	1a	AXR8QNGNBF1DU	temp1	1	8	8/8/17 8:03	mule	infant	infant	3.003	100	1	1	bl	test	NoFeedback	UserTiming 	bl	2	E	1a	AXR8QNGNBF1DU	temp1	1	16	8/8/17 8:05	mule	infant	infant	10.68	100	1	1	bl	test	NoFeedback	UserTiming 	bl	3	E	1a	7	0AXR8QNGNBF1DU	temp1	1	90	8/8/17 8:16	mother	kiss	kiss	5.717	100	1	1	bl	copy	Feedback	UserTiming 	bl	1	G	6a	AXR8QNGNBF1DU	temp1	1	94	8/8/17 8:17	mother	kiss	kiss	4.4	100	1	1	bl	test	NoFeedback	UserTiming 	bl	2	G	6a	AXR8QNGNBF1DU	temp1	1	116	8/8/17 8:19	mother	kiss	kiss	5.049	100	1	1	bl	test	NoFeedback	UserTiming 	bl	3	G	6a	21	0AXR8QNGNBF1DU	temp1	1	81	8/8/17 8:15	board	tobacco	tobacco	6.236	100	1	1	bl	copy	Feedback	UserTiming 	bl	1	G	5a	AXR8QNGNBF1DU	temp1	1	85	8/8/17 8:15	board	tobacco	tobacco	4.41	100	1	1	bl	test	NoFeedback	UserTiming 	bl	2	G	5a	AXR8QNGNBF1DU	temp1	1	107	8/8/17 8:18	board	tobacco	tobacco	5.015	100	1	1	bl	test	NoFeedback	UserTiming 	bl	3	G	5a	21	0AXR8QNGNBF1DU	temp1	1	59	8/8/17 8:13	thorn	cash	cash	6.022	100	1	1	bl	copy	Feedback	UserTiming 	bl	1	G	4a	AXR8QNGNBF1DU	temp1	1	62	8/8/17 8:13	thorn	cash	cash	4.008	100	1	1	bl	test	NoFeedback	UserTiming 	bl	2	G	4a	AXR8QNGNBF1DU	temp1	1	84	8/8/17 8:15	thorn	cash	cash	4.274	100	1	1	bl	test	NoFeedback	UserTiming 	bl	3	G	4a	21	0AXR8QNGNBF1DU	temp1	1	51	8/8/17 8:12	lark	strawberry	strawberry	7.217	100	1	1	bl	copy	Feedback	UserTiming 	bl	1	G	3a	AXR8QNGNBF1DU	temp1	1	57	8/8/17 8:12	lark	strawberry	strawberry	5.782	100	1	1	bl	test	NoFeedback	UserTiming 	bl	2	G	3a	AXR8QNGNBF1DU	temp1	1	79	8/8/17 8:15	lark	strawberry	strawberry	4.22	100	1	1	bl	test	NoFeedback	UserTiming 	bl	3	G	3a	21	0AXR8QNGNBF1DU	temp1	1	34	8/8/17 8:09	maiden	banker	banker	6.524	100	1	1	bl	copy	Feedback	UserTiming 	bl	1	G	2b	AXR8QNGNBF1DU	temp1	1	38	8/8/17 8:10	maiden	banker	banker	5.418	100	1	1	bl	test	NoFeedback	UserTiming 	bl	2	G	2b	AXR8QNGNBF1DU	temp1	1	60	8/8/17 8:13	maiden	banker	banker	5.234	100	1	1	bl	test	NoFeedback	UserTiming 	bl	3	G	2b	21	0AXR8QNGNBF1DU	temp1	1	10	8/8/17 8:04	chin	soil	soil	9.805	100	1	1	bl	copy	Feedback	UserTiming 	bl	1	G	1b	AXR8QNGNBF1DU	temp1	1	14	8/8/17 8:05	chin	soil	soil	5.745	100	1	1	bl	test	NoFeedback	UserTiming 	bl	2	G	1b	AXR8QNGNBF1DU	temp1	1	36	8/8/17 8:09	chin	soil	soil	6.419	100	1	1	bl	test	NoFeedback	UserTiming 	bl	3	G	1b	21	0AXR8QNGNBF1DU	temp1	1	42	8/8/17 8:10	bullet	bagpipe	bagpipe	5.859	100	1	1	bl	copy	Feedback	UserTiming 	bl	1	I	6b	AXR8QNGNBF1DU	temp1	1	46	8/8/17 8:11	bullet	bagpipe	bagpipe	5.961	100	1	1	bl	test	NoFeedback	UserTiming 	bl	2	I	6b	AXR8QNGNBF1DU	temp1	1	106	8/8/17 8:18	bullet	bagpipe	bagpipe	5.08	100	1	1	bl	test	NoFeedback	UserTiming 	bl	3	I	6b	59	0AXR8QNGNBF1DU	temp1	1	40	8/8/17 8:10	alligator	bottle	bottle	6.125	100	1	1	bl	copy	Feedback	UserTiming 	bl	1	I	5b	AXR8QNGNBF1DU	temp1	1	44	8/8/17 8:11	alligator	bottle	bottle	6.963	100	1	1	bl	test	NoFeedback	UserTiming 	bl	2	I	5b	AXR8QNGNBF1DU	temp1	1	104	8/8/17 8:18	alligator	bottle	bottle	5.474	100	1	1	bl	test	NoFeedback	UserTiming 	bl	3	I	5b	59	0AXR8QNGNBF1DU	temp1	1	21	8/8/17 8:06	golf	building	building	4.035	100	1	1	bl	copy	Feedback	UserTiming 	bl	1	I	3b	AXR8QNGNBF1DU	temp1	1	23	8/8/17 8:07	golf	building	building	7.577	100	1	1	bl	test	NoFeedback	UserTiming 	bl	2	I	3b	AXR8QNGNBF1DU	temp1	1	83	8/8/17 8:15	golf	building	building	5.566	100	1	1	bl	test	NoFeedback	UserTiming 	bl	3	I	3b	59	0AXR8QNGNBF1DU	temp1	1	20	8/8/17 8:06	sunset	pudding	pudding	23.385	100	1	1	bl	copy	Feedback	UserTiming 	bl	1	I	2b	AXR8QNGNBF1DU	temp1	1	22	8/8/17 8:06	sunset	pudding	pudding	5.941	100	1	1	bl	test	NoFeedback	UserTiming 	bl	2	I	2b	AXR8QNGNBF1DU	temp1	1	82	8/8/17 8:15	sunset	pudding	pudding	4.324	100	1	1	bl	test	NoFeedback	UserTiming 	bl	3	I	2b	59	0AXR8QNGNBF1DU	temp1	1	11	8/8/17 8:04	wine	jelly	jelly	7.454	100	1	1	bl	copy	Feedback	UserTiming 	bl	1	I	1b	AXR8QNGNBF1DU	temp1	1	17	8/8/17 8:05	wine	jelly	jelly	6.083	100	1	1	bl	test	NoFeedback	UserTiming 	bl	2	I	1b	AXR8QNGNBF1DU	temp1	1	77	8/8/17 8:15	wine	jelly	jelly	8.319	100	1	1	bl	test	NoFeedback	UserTiming 	bl	3	I	1b	59	0AXR8QNGNBF1DU	temp1	1	43	8/8/17 8:10	daffodil	corpse	corpse	6.786	100	1	1	bl	copy	Feedback	UserTiming 	bl	1	J	6b	AXR8QNGNBF1DU	temp1	1	47	8/8/17 8:11	daffodil	corpse	corpse	4.011	100	1	1	bl	test	NoFeedback	UserTiming 	bl	2	J	6b	AXR8QNGNBF1DU	temp1	1	147	8/8/17 8:23	daffodil	corpse	corpse	5.038	100	1	1	bl	test	NoFeedback	UserTiming 	bl	3	J	6b	99	0AXR8QNGNBF1DU	temp1	1	41	8/8/17 8:10	corn	cattle	cattle	6.079	100	1	1	bl	copy	Feedback	UserTiming 	bl	1	J	5b	AXR8QNGNBF1DU	temp1	1	45	8/8/17 8:11	corn	cattle	cattle	5.946	100	1	1	bl	test	NoFeedback	UserTiming 	bl	2	J	5b	AXR8QNGNBF1DU	temp1	1	145	8/8/17 8:23	corn	cattle	cattle	13.05	100	1	1	bl	test	NoFeedback	UserTiming 	bl	3	J	5b	99	0AXR8QNGNBF1DU	temp1	1	33	8/8/17 8:09	footwear	acrobat	acrobat	5.982	100	1	1	bl	copy	Feedback	UserTiming 	bl	1	J	4b	AXR8QNGNBF1DU	temp1	1	37	8/8/17 8:10	footwear	acrobat	acrobat	5.393	100	1	1	bl	test	NoFeedback	UserTiming 	bl	2	J	4b	AXR8QNGNBF1DU	temp1	1	137	8/8/17 8:22	footwear	acrobat	acrobat	5.998	100	1	1	bl	test	NoFeedback	UserTiming 	bl	3	J	4b	99	0AXR8QNGNBF1DU	temp1	1	15	8/8/17 8:05	camp	frog	frog	7.424	100	1	1	bl	copy	Feedback	UserTiming 	bl	1	J	3b	AXR8QNGNBF1DU	temp1	1	19	8/8/17 8:06	camp	frog	frog	6.399	100	1	1	bl	test	NoFeedback	UserTiming 	bl	2	J	3b	AXR8QNGNBF1DU	temp1	1	119	8/8/17 8:20	camp	frog	frog	7.17	100	1	1	bl	test	NoFeedback	UserTiming 	bl	3	J	3b	99	0AXR8QNGNBF1DU	temp1	1	13	8/8/17 8:05	jury	butcher	butcher	7.704	100	1	1	bl	copy	Feedback	UserTiming 	bl	1	J	2b	AXR8QNGNBF1DU	temp1	1	18	8/8/17 8:06	jury	butcher	butcher	10.098	100	1	1	bl	test	NoFeedback	UserTiming 	bl	2	J	2b	AXR8QNGNBF1DU	temp1	1	118	8/8/17 8:19	jury	butcher	butcher	5.182	100	1	1	bl	test	NoFeedback	UserTiming 	bl	3	J	2b	99	0AXR8QNGNBF1DU	temp1	1	9	8/8/17 8:04	hotel	fireplace	fireplace	30.701	100	1	1	bl	copy	Feedback	UserTiming 	bl	1	J	1b	AXR8QNGNBF1DU	temp1	1	12	8/8/17 8:05	hotel	fireplace	fireplace	6.191	100	1	1	bl	test	NoFeedback	UserTiming 	bl	2	J	1b	AXR8QNGNBF1DU	temp1	1	112	8/8/17 8:19	hotel	fireplace	fireplace	5.197	100	1	1	bl	test	NoFeedback	UserTiming 	bl	3	J	1b	99	0AVXEDARJC5HLU	temp1	1	25	8/8/17 11:56	microscope	ship	ship	4.293	100	1	1	bl	copy	Feedback	UserTiming 	bl	1	A	2a	AVXEDARJC5HLU	temp1	1	28	8/8/17 11:57	microscope	ship	ship	2.953	100	1	1	bl	test	NoFeedback	UserTiming 	bl	2	A	2a	AVXEDARJC5HLU	temp1	1	29	8/8/17 11:57	microscope	ship	ship	2.685	100	1	1	bl	test	NoFeedback	UserTiming 	bl	3	A	2a	0	0AVXEDARJC5HLU	temp1	1	2	8/8/17 11:53	locker	ticket	ticket	3.494	100	1	1	bl	copy	Feedback	UserTiming 	bl	1	A	1a	AVXEDARJC5HLU	temp1	1	5	8/8/17 11:54	locker	ticket	ticket	2.292	100	1	1	bl	test	NoFeedback	UserTiming 	bl	2	A	1a	AVXEDARJC5HLU	temp1	1	6	8/8/17 11:54	locker	ticket	ticket	3.309	100	1	1	bl	test	NoFeedback	UserTiming 	bl	3	A	1a	0	0AVXEDARJC5HLU	temp1	1	72	8/8/17 12:03	oven	automobile	automobile	21.58	100	1	1	bl	copy	Feedback	UserTiming 	bl	1	C	5a	AVXEDARJC5HLU	temp1	1	75	8/8/17 12:03	oven	automobile	automobile	3.989	100	1	1	bl	test	NoFeedback	UserTiming 	bl	2	C	5a	AVXEDARJC5HLU	temp1	1	78	8/8/17 12:04	oven	automobile	automobile	11.103	100	1	1	bl	test	NoFeedback	UserTiming 	bl	3	C	5a	2	0AVXEDARJC5HLU	temp1	1	65	8/8/17 12:02	troops	coffee	coffee	3.239	100	1	1	bl	copy	Feedback	UserTiming 	bl	1	C	4b	AVXEDARJC5HLU	temp1	1	68	8/8/17 12:02	troops	coffee	coffee	3.835	100	1	1	bl	test	NoFeedback	UserTiming 	bl	2	C	4b	AVXEDARJC5HLU	temp1	1	71	8/8/17 12:03	troops	coffee	coffee	3.82	100	1	1	bl	test	NoFeedback	UserTiming 	bl	3	C	4b	2	0AVXEDARJC5HLU	temp1	1	87	8/8/17 12:05	elephant	candy	candy	4.396	100	1	1	bl	copy	Feedback	UserTiming 	bl	1	E	6a	AVXEDARJC5HLU	temp1	1	91	8/8/17 12:05	elephant	candy	candy	3.839	100	1	1	bl	test	NoFeedback	UserTiming 	bl	2	E	6a	AVXEDARJC5HLU	temp1	1	99	8/8/17 12:06	elephant	candy	candy	10.693	100	1	1	bl	test	NoFeedback	UserTiming 	bl	3	E	6a	7	0AVXEDARJC5HLU	temp1	1	76	8/8/17 12:04	dust	vehicle	vehicle	6.679	100	1	1	bl	copy	Feedback	UserTiming 	bl	1	E	5a	AVXEDARJC5HLU	temp1	1	80	8/8/17 12:04	dust	vehicle	vehicle	10.621	100	1	1	bl	test	NoFeedback	UserTiming 	bl	2	E	5a	AVXEDARJC5HLU	temp1	1	88	8/8/17 12:05	dust	vehicle	vehice	3.309	92.30769231	1	0	bl	test	NoFeedback	UserTiming 	bl	3	E	5a	7	0AVXEDARJC5HLU	temp1	1	26	8/8/17 11:57	slipper	timepiece	timepiece	3.656	100	1	1	bl	copy	Feedback	UserTiming 	bl	1	E	2a	AVXEDARJC5HLU	temp1	1	31	8/8/17 11:57	slipper	timepiece	timepiece	4.159	100	1	1	bl	test	NoFeedback	UserTiming 	bl	2	E	2a	AVXEDARJC5HLU	temp1	1	39	8/8/17 11:58	slipper	timepiece	timepiece	3.313	100	1	1	bl	test	NoFeedback	UserTiming 	bl	3	E	2a	7	0AVXEDARJC5HLU	temp1	1	3	8/8/17 11:53	mule	infant	infant	7.473	100	1	1	bl	copy	Feedback	UserTiming 	bl	1	E	1a	AVXEDARJC5HLU	temp1	1	8	8/8/17 11:54	mule	infant	infant	3.365	100	1	1	bl	test	NoFeedback	UserTiming 	bl	2	E	1a	AVXEDARJC5HLU	temp1	1	16	8/8/17 11:55	mule	infant	infant	3.068	100	1	1	bl	test	NoFeedback	UserTiming 	bl	3	E	1a	7	0AVXEDARJC5HLU	temp1	1	59	8/8/17 12:01	daffodil	corpse	corpse	113.405	100	1	1	bl	copy	Feedback	UserTiming 	bl	1	G	4a	AVXEDARJC5HLU	temp1	1	62	8/8/17 12:02	daffodil	corpse	corpse	5.811	100	1	1	bl	test	NoFeedback	UserTiming 	bl	2	G	4a	AVXEDARJC5HLU	temp1	1	84	8/8/17 12:05	daffodil	corpse	corpse	5.197	100	1	1	bl	test	NoFeedback	UserTiming 	bl	3	G	4a	21	0AVXEDARJC5HLU	temp1	1	34	8/8/17 11:57	corn	cattle	cattle	3.63	100	1	1	bl	copy	Feedback	UserTiming 	bl	1	G	2b	AVXEDARJC5HLU	temp1	1	38	8/8/17 11:58	corn	cattle	cattle	5.166	100	1	1	bl	test	NoFeedback	UserTiming 	bl	2	G	2b	AVXEDARJC5HLU	temp1	1	60	8/8/17 12:02	corn	cattle	cattle	7.554	100	1	1	bl	test	NoFeedback	UserTiming 	bl	3	G	2b	21	0AVXEDARJC5HLU	temp1	1	42	8/8/17 11:58	lark	strawberry	strawberry	5.783	100	1	1	bl	copy	Feedback	UserTiming 	bl	1	I	6b	AVXEDARJC5HLU	temp1	1	46	8/8/17 11:58	lark	strawberry	strawberry	4.835	100	1	1	bl	test	NoFeedback	UserTiming 	bl	2	I	6b	AVXEDARJC5HLU	temp1	1	106	8/8/17 12:07	lark	strawberry	strawberry	5.507	100	1	1	bl	test	NoFeedback	UserTiming 	bl	3	I	6b	59	0AVXEDARJC5HLU	temp1	1	40	8/8/17 11:58	wife	cord	cord	3.414	100	1	1	bl	copy	Feedback	UserTiming 	bl	1	I	5b	AVXEDARJC5HLU	temp1	1	44	8/8/17 11:58	wife	cord	cord	2.364	100	1	1	bl	test	NoFeedback	UserTiming 	bl	2	I	5b	AVXEDARJC5HLU	temp1	1	104	8/8/17 12:07	wife	cord	cord	5.894	100	1	1	bl	test	NoFeedback	UserTiming 	bl	3	I	5b	59	0AVXEDARJC5HLU	temp1	1	21	8/8/17 11:56	skillet	oats	oats	17.499	100	1	1	bl	copy	Feedback	UserTiming 	bl	1	I	3b	AVXEDARJC5HLU	temp1	1	23	8/8/17 11:56	skillet	oats	oats	9.967	100	1	1	bl	test	NoFeedback	UserTiming 	bl	2	I	3b	AVXEDARJC5HLU	temp1	1	83	8/8/17 12:04	skillet	oats	top	3.414	28.57142857	0	0	bl	test	NoFeedback	UserTiming 	bl	3	I	3b	59	0AVXEDARJC5HLU	temp1	1	20	8/8/17 11:56	alligator	bottle	bottle	3.547	100	1	1	bl	copy	Feedback	UserTiming 	bl	1	I	2b	AVXEDARJC5HLU	temp1	1	22	8/8/17 11:56	alligator	bottle	bottle	3.416	100	1	1	bl	test	NoFeedback	UserTiming 	bl	2	I	2b	AVXEDARJC5HLU	temp1	1	82	8/8/17 12:04	alligator	bottle	purse	4.845	18.18181818	0	0	bl	test	NoFeedback	UserTiming 	bl	3	I	2b	59	0AVXEDARJC5HLU	temp1	1	11	8/8/17 11:55	saloon	cradle	cradle	4.184	100	1	1	bl	copy	Feedback	UserTiming 	bl	1	I	1b	AVXEDARJC5HLU	temp1	1	17	8/8/17 11:56	saloon	cradle	cradle	5.472	100	1	1	bl	test	NoFeedback	UserTiming 	bl	2	I	1b	AVXEDARJC5HLU	temp1	1	77	8/8/17 12:04	saloon	cradle	cradle	5.371	100	1	1	bl	test	NoFeedback	UserTiming 	bl	3	I	1b	59	0AVXEDARJC5HLU	temp1	1	43	8/8/17 11:58	refrigerator	factory	factory	3.772	100	1	1	bl	copy	Feedback	UserTiming 	bl	1	J	6b	AVXEDARJC5HLU	temp1	1	47	8/8/17 11:58	refrigerator	factory	factory	4.339	100	1	1	bl	test	NoFeedback	UserTiming 	bl	2	J	6b	AVXEDARJC5HLU	temp1	1	147	8/8/17 12:11	refrigerator	factory	factory	6.817	100	1	1	bl	test	NoFeedback	UserTiming 	bl	3	J	6b	99	0AVXEDARJC5HLU	temp1	1	15	8/8/17 11:55	icebox	table	table	3.427	100	1	1	bl	copy	Feedback	UserTiming 	bl	1	J	3b	AVXEDARJC5HLU	temp1	1	19	8/8/17 11:56	icebox	table	table	2.902	100	1	1	bl	test	NoFeedback	UserTiming 	bl	2	J	3b	AVXEDARJC5HLU	temp1	1	119	8/8/17 12:08	icebox	table	table	4.779	100	1	1	bl	test	NoFeedback	UserTiming 	bl	3	J	3b	99	0AVXEDARJC5HLU	temp1	1	13	8/8/17 11:55	lemon	monk	monk	4.976	100	1	1	bl	copy	Feedback	UserTiming 	bl	1	J	2b	AVXEDARJC5HLU	temp1	1	18	8/8/17 11:56	lemon	monk	monk	4.077	100	1	1	bl	test	NoFeedback	UserTiming 	bl	2	J	2b	AVXEDARJC5HLU	temp1	1	118	8/8/17 12:08	lemon	monk	sunrise	5.806	18.18181818	0	0	bl	test	NoFeedback	UserTiming 	bl	3	J	2b	99	0AVXEDARJC5HLU	temp1	1	9	8/8/17 11:55	thorn	cash	cash	45.304	100	1	1	bl	copy	Feedback	UserTiming 	bl	1	J	1b	AVXEDARJC5HLU	temp1	1	12	8/8/17 11:55	thorn	cash	cash	6.931	100	1	1	bl	test	NoFeedback	UserTiming 	bl	2	J	1b	AVXEDARJC5HLU	temp1	1	112	8/8/17 12:07	thorn	cash	rose	5.171	25	0	0	bl	test	NoFeedback	UserTiming 	bl	3	J	1b	99	0AVJUIF9QHQRY8	temp1	1	63	8/8/17 7:24	swamp	macaroni	macaroni	9.912	100	1	1	bl	copy	Feedback	UserTiming 	bl	1	A	4b	AVJUIF9QHQRY8	temp1	1	66	8/8/17 7:25	swamp	macaroni	macaroni	9.793	100	1	1	bl	test	NoFeedback	UserTiming 	bl	2	A	4b	AVJUIF9QHQRY8	temp1	1	67	8/8/17 7:25	swamp	macaroni	macaroni	10.898	100	1	1	bl	test	NoFeedback	UserTiming 	bl	3	A	4b	0	0AVJUIF9QHQRY8	temp1	1	25	8/8/17 7:18	icebox	table	table	7.86	100	1	1	bl	copy	Feedback	UserTiming 	bl	1	A	2a	AVJUIF9QHQRY8	temp1	1	28	8/8/17 7:19	icebox	table	table	7.459	100	1	1	bl	test	NoFeedback	UserTiming 	bl	2	A	2a	AVJUIF9QHQRY8	temp1	1	29	8/8/17 7:19	icebox	table	table	5.324	100	1	1	bl	test	NoFeedback	UserTiming 	bl	3	A	2a	0	0AVJUIF9QHQRY8	temp1	1	65	8/8/17 7:25	dust	vehicle	vehicle	29.954	100	1	1	bl	copy	Feedback	UserTiming 	bl	1	C	4b	AVJUIF9QHQRY8	temp1	1	68	8/8/17 7:25	dust	vehicle	vechile	6.531	85.71428571	1	0	bl	test	NoFeedback	UserTiming 	bl	2	C	4b	AVJUIF9QHQRY8	temp1	1	71	8/8/17 7:26	dust	vehicle	vechile	9.625	85.71428571	1	0	bl	test	NoFeedback	UserTiming 	bl	3	C	4b	2	0AVJUIF9QHQRY8	temp1	1	24	8/8/17 7:18	troops	coffee	coffee	6.106	100	1	1	bl	copy	Feedback	UserTiming 	bl	1	C	2a	AVJUIF9QHQRY8	temp1	1	27	8/8/17 7:19	troops	coffee	coffee	8.982	100	1	1	bl	test	NoFeedback	UserTiming 	bl	2	C	2a	AVJUIF9QHQRY8	temp1	1	30	8/8/17 7:19	troops	coffee	coffee	5.654	100	1	1	bl	test	NoFeedback	UserTiming 	bl	3	C	2a	2	0AVJUIF9QHQRY8	temp1	1	76	8/8/17 7:26	mother	kiss	kiss	2.29	100	1	1	bl	copy	Feedback	UserTiming 	bl	1	E	5a	AVJUIF9QHQRY8	temp1	1	80	8/8/17 7:26	mother	kiss	kiss	5.392	100	1	1	bl	test	NoFeedback	UserTiming 	bl	2	E	5a	AVJUIF9QHQRY8	temp1	1	88	8/8/17 7:27	mother	kiss	kiss	2.212	100	1	1	bl	test	NoFeedback	UserTiming 	bl	3	E	5a	7	0AVJUIF9QHQRY8	temp1	1	58	8/8/17 7:23	coin	window	window	7.069	100	1	1	bl	copy	Feedback	UserTiming 	bl	1	E	4a	AVJUIF9QHQRY8	temp1	1	61	8/8/17 7:24	coin	window	window	8.39	100	1	1	bl	test	NoFeedback	UserTiming 	bl	2	E	4a	AVJUIF9QHQRY8	temp1	1	69	8/8/17 7:25	coin	window	window	7.732	100	1	1	bl	test	NoFeedback	UserTiming 	bl	3	E	4a	7	0AVJUIF9QHQRY8	temp1	1	50	8/8/17 7:23	daffodil	corpse	corpse	4.753	100	1	1	bl	copy	Feedback	UserTiming 	bl	1	E	3a	AVJUIF9QHQRY8	temp1	1	56	8/8/17 7:23	daffodil	corpse	cropse	5.164	83.33333333	1	0	bl	test	NoFeedback	UserTiming 	bl	2	E	3a	AVJUIF9QHQRY8	temp1	1	64	8/8/17 7:24	daffodil	corpse	tower	4.291	36.36363636	0	0	bl	test	NoFeedback	UserTiming 	bl	3	E	3a	7	0AVJUIF9QHQRY8	temp1	1	26	8/8/17 7:18	earth	nursery	nursey	7.592	92.30769231	1	0	bl	copy	Feedback	UserTiming 	bl	1	E	2a	AVJUIF9QHQRY8	temp1	1	31	8/8/17 7:19	earth	nursery	nursey	4.358	92.30769231	1	0	bl	test	NoFeedback	UserTiming 	bl	2	E	2a	AVJUIF9QHQRY8	temp1	1	39	8/8/17 7:20	earth	nursery	nursey	6.206	92.30769231	1	0	bl	test	NoFeedback	UserTiming 	bl	3	E	2a	7	0AVJUIF9QHQRY8	temp1	1	59	8/8/17 7:23	camp	frog	frog	11.554	100	1	1	bl	copy	Feedback	UserTiming 	bl	1	G	4a	AVJUIF9QHQRY8	temp1	1	62	8/8/17 7:24	camp	frog	frog	4.527	100	1	1	bl	test	NoFeedback	UserTiming 	bl	2	G	4a	AVJUIF9QHQRY8	temp1	1	84	8/8/17 7:27	camp	frog	frog	6.347	100	1	1	bl	test	NoFeedback	UserTiming 	bl	3	G	4a	21	0AVJUIF9QHQRY8	temp1	1	34	8/8/17 7:20	professor	army	army	6.425	100	1	1	bl	copy	Feedback	UserTiming 	bl	1	G	2b	AVJUIF9QHQRY8	temp1	1	38	8/8/17 7:20	professor	army	army	5.933	100	1	1	bl	test	NoFeedback	UserTiming 	bl	2	G	2b	AVJUIF9QHQRY8	temp1	1	60	8/8/17 7:24	professor	army	army	9.102	100	1	1	bl	test	NoFeedback	UserTiming 	bl	3	G	2b	21	0AVJUIF9QHQRY8	temp1	1	10	8/8/17 7:15	door	insect	insect	10.473	100	1	1	bl	copy	Feedback	UserTiming 	bl	1	G	1b	AVJUIF9QHQRY8	temp1	1	14	8/8/17 7:16	door	insect	insect	22.567	100	1	1	bl	test	NoFeedback	UserTiming 	bl	2	G	1b	AVJUIF9QHQRY8	temp1	1	36	8/8/17 7:20	door	insect	maiden	6.975	33.33333333	0	0	bl	test	NoFeedback	UserTiming 	bl	3	G	1b	21	0AVJUIF9QHQRY8	temp1	1	42	8/8/17 7:21	trumpet	house	house	6.456	100	1	1	bl	copy	Feedback	UserTiming 	bl	1	I	6b	AVJUIF9QHQRY8	temp1	1	46	8/8/17 7:22	trumpet	house	house	7.47	100	1	1	bl	test	NoFeedback	UserTiming 	bl	2	I	6b	AVJUIF9QHQRY8	temp1	1	106	8/8/17 7:29	trumpet	house	window	7.173	18.18181818	0	0	bl	test	NoFeedback	UserTiming 	bl	3	I	6b	59	0AVJUIF9QHQRY8	temp1	1	40	8/8/17 7:20	avalanche	animal	animal	5.793	100	1	1	bl	copy	Feedback	UserTiming 	bl	1	I	5b	AVJUIF9QHQRY8	temp1	1	44	8/8/17 7:21	avalanche	animal	animal	11.504	100	1	1	bl	test	NoFeedback	UserTiming 	bl	2	I	5b	AVJUIF9QHQRY8	temp1	1	104	8/8/17 7:29	avalanche	animal	tree	3.198	0	0	0	bl	test	NoFeedback	UserTiming 	bl	3	I	5b	59	0AVJUIF9QHQRY8	temp1	1	21	8/8/17 7:18	village	prairie	prairie	7.737	100	1	1	bl	copy	Feedback	UserTiming 	bl	1	I	3b	AVJUIF9QHQRY8	temp1	1	23	8/8/17 7:18	village	prairie	prairie	14.149	100	1	1	bl	test	NoFeedback	UserTiming 	bl	2	I	3b	AVJUIF9QHQRY8	temp1	1	83	8/8/17 7:27	village	prairie	praire	9.097	92.30769231	1	0	bl	test	NoFeedback	UserTiming 	bl	3	I	3b	59	0AVJUIF9QHQRY8	temp1	1	20	8/8/17 7:17	sunset	pudding	pudding	29.84	100	1	1	bl	copy	Feedback	UserTiming 	bl	1	I	2b	AVJUIF9QHQRY8	temp1	1	22	8/8/17 7:18	sunset	pudding	pudding	16.382	100	1	1	bl	test	NoFeedback	UserTiming 	bl	2	I	2b	AVJUIF9QHQRY8	temp1	1	82	8/8/17 7:27	sunset	pudding	pudding	11.28	100	1	1	bl	test	NoFeedback	UserTiming 	bl	3	I	2b	59	0AVJUIF9QHQRY8	temp1	1	43	8/8/17 7:21	hotel	fireplace	fireplace	5.888	100	1	1	bl	copy	Feedback	UserTiming 	bl	1	J	6b	AVJUIF9QHQRY8	temp1	1	47	8/8/17 7:22	hotel	fireplace	fireplace	6.099	100	1	1	bl	test	NoFeedback	UserTiming 	bl	2	J	6b	AVJUIF9QHQRY8	temp1	1	147	8/8/17 7:36	hotel	fireplace	place	7.348	71.42857143	0	0	bl	test	NoFeedback	UserTiming 	bl	3	J	6b	99	0AVJUIF9QHQRY8	temp1	1	41	8/8/17 7:20	footwear	acrobat	acrobat	6.397	100	1	1	bl	copy	Feedback	UserTiming 	bl	1	J	5b	AVJUIF9QHQRY8	temp1	1	45	8/8/17 7:22	footwear	acrobat	acrobat	53.37	100	1	1	bl	test	NoFeedback	UserTiming 	bl	2	J	5b	AVJUIF9QHQRY8	temp1	1	145	8/8/17 7:36	footwear	acrobat	acrobat	7.214	100	1	1	bl	test	NoFeedback	UserTiming 	bl	3	J	5b	99	0AVJUIF9QHQRY8	temp1	1	15	8/8/17 7:16	wife	cord	cord	26.583	100	1	1	bl	copy	Feedback	UserTiming 	bl	1	J	3b	AVJUIF9QHQRY8	temp1	1	19	8/8/17 7:17	wife	cord	cord	4.674	100	1	1	bl	test	NoFeedback	UserTiming 	bl	2	J	3b	AVJUIF9QHQRY8	temp1	1	119	8/8/17 7:32	wife	cord	kiss	9.107	0	0	0	bl	test	NoFeedback	UserTiming 	bl	3	J	3b	99	0AVJUIF9QHQRY8	temp1	1	13	8/8/17 7:15	golf	building	building	27.331	100	1	1	bl	copy	Feedback	UserTiming 	bl	1	J	2b	AVJUIF9QHQRY8	temp1	1	18	8/8/17 7:17	golf	building	buiding	5.801	93.33333333	1	0	bl	test	NoFeedback	UserTiming 	bl	2	J	2b	AVJUIF9QHQRY8	temp1	1	118	8/8/17 7:32	golf	building	tree	3.434	0	0	0	bl	test	NoFeedback	UserTiming 	bl	3	J	2b	99	0AVJUIF9QHQRY8	temp1	1	9	8/8/17 7:14	elephant	candy	candy	24.984	100	1	1	bl	copy	Feedback	UserTiming 	bl	1	J	1b	AVJUIF9QHQRY8	temp1	1	12	8/8/17 7:15	elephant	candy	candy	8.188	100	1	1	bl	test	NoFeedback	UserTiming 	bl	2	J	1b	AVJUIF9QHQRY8	temp1	1	112	8/8/17 7:30	elephant	candy	andy	22.636	88.88888889	1	0	bl	test	NoFeedback	UserTiming 	bl	3	J	1b	99	0AU2RMH9IZP60M	temp1	1	93	8/8/17 7:56	temple	flesh	flesh	1.911	100	1	1	bl	copy	Feedback	UserTiming 	bl	1	A	6a	AU2RMH9IZP60M	temp1	1	96	8/8/17 7:57	temple	flesh	flesh	6.026	100	1	1	bl	test	NoFeedback	UserTiming 	bl	2	A	6a	AU2RMH9IZP60M	temp1	1	97	8/8/17 7:57	temple	flesh	flesh	1.712	100	1	1	bl	test	NoFeedback	UserTiming 	bl	3	A	6a	0	0AU2RMH9IZP60M	temp1	1	63	8/8/17 7:53	wine	jelly	jelly	2.24	100	1	1	bl	copy	Feedback	UserTiming 	bl	1	A	4b	AU2RMH9IZP60M	temp1	1	66	8/8/17 7:54	wine	jelly	jelly	2.342	100	1	1	bl	test	NoFeedback	UserTiming 	bl	2	A	4b	AU2RMH9IZP60M	temp1	1	67	8/8/17 7:54	wine	jelly	jelly	1.805	100	1	1	bl	test	NoFeedback	UserTiming 	bl	3	A	4b	0	0AU2RMH9IZP60M	temp1	1	86	8/8/17 7:56	mule	infant	infant	2.343	100	1	1	bl	copy	Feedback	UserTiming 	bl	1	C	6a	AU2RMH9IZP60M	temp1	1	89	8/8/17 7:56	mule	infant	infant	1.878	100	1	1	bl	test	NoFeedback	UserTiming 	bl	2	C	6a	AU2RMH9IZP60M	temp1	1	92	8/8/17 7:56	mule	infant	infant	1.844	100	1	1	bl	test	NoFeedback	UserTiming 	bl	3	C	6a	2	0AU2RMH9IZP60M	temp1	1	72	8/8/17 7:54	footwear	acrobat	acrobat	2.643	100	1	1	bl	copy	Feedback	UserTiming 	bl	1	C	5a	AU2RMH9IZP60M	temp1	1	75	8/8/17 7:55	footwear	acrobat	acrobat	4.289	100	1	1	bl	test	NoFeedback	UserTiming 	bl	2	C	5a	AU2RMH9IZP60M	temp1	1	78	8/8/17 7:55	footwear	acrobat	acrobat	2.944	100	1	1	bl	test	NoFeedback	UserTiming 	bl	3	C	5a	2	0AU2RMH9IZP60M	temp1	1	65	8/8/17 7:54	avalanche	animal	animal	7.027	100	1	1	bl	copy	Feedback	UserTiming 	bl	1	C	4b	AU2RMH9IZP60M	temp1	1	68	8/8/17 7:54	avalanche	animal	animal	10.287	100	1	1	bl	test	NoFeedback	UserTiming 	bl	2	C	4b	AU2RMH9IZP60M	temp1	1	71	8/8/17 7:54	avalanche	animal	pile	11.824	40	0	0	bl	test	NoFeedback	UserTiming 	bl	3	C	4b	2	0AU2RMH9IZP60M	temp1	1	1	8/8/17 7:47	icebox	table	table	2.714	100	1	1	bl	copy	Feedback	UserTiming 	bl	1	C	1a	AU2RMH9IZP60M	temp1	1	4	8/8/17 7:48	icebox	table	table	4.058	100	1	1	bl	test	NoFeedback	UserTiming 	bl	2	C	1a	AU2RMH9IZP60M	temp1	1	7	8/8/17 7:48	icebox	table	table	1.944	100	1	1	bl	test	NoFeedback	UserTiming 	bl	3	C	1a	2	0AU2RMH9IZP60M	temp1	1	87	8/8/17 7:56	spray	apple	apple	2.225	100	1	1	bl	copy	Feedback	UserTiming 	bl	1	E	6a	AU2RMH9IZP60M	temp1	1	91	8/8/17 7:56	spray	apple	apple	5.057	100	1	1	bl	test	NoFeedback	UserTiming 	bl	2	E	6a	AU2RMH9IZP60M	temp1	1	99	8/8/17 7:57	spray	apple	infect	3.551	18.18181818	0	0	bl	test	NoFeedback	UserTiming 	bl	3	E	6a	7	0AU2RMH9IZP60M	temp1	1	59	8/8/17 7:53	oven	automobile	automobile	4.103	100	1	1	bl	copy	Feedback	UserTiming 	bl	1	G	4a	AU2RMH9IZP60M	temp1	1	62	8/8/17 7:53	oven	automobile	automobile	6.625	100	1	1	bl	test	NoFeedback	UserTiming 	bl	2	G	4a	AU2RMH9IZP60M	temp1	1	84	8/8/17 7:55	oven	automobile	automobile	4.663	100	1	1	bl	test	NoFeedback	UserTiming 	bl	3	G	4a	21	0AU2RMH9IZP60M	temp1	1	34	8/8/17 7:51	refrigerator	factory	factory	3.578	100	1	1	bl	copy	Feedback	UserTiming 	bl	1	G	2b	AU2RMH9IZP60M	temp1	1	38	8/8/17 7:51	refrigerator	factory	factory	7.277	100	1	1	bl	test	NoFeedback	UserTiming 	bl	2	G	2b	AU2RMH9IZP60M	temp1	1	60	8/8/17 7:53	refrigerator	factory	factory	5.12	100	1	1	bl	test	NoFeedback	UserTiming 	bl	3	G	2b	21	0AU2RMH9IZP60M	temp1	1	10	8/8/17 7:49	golf	building	building	2.267	100	1	1	bl	copy	Feedback	UserTiming 	bl	1	G	1b	AU2RMH9IZP60M	temp1	1	14	8/8/17 7:49	golf	building	building	2.848	100	1	1	bl	test	NoFeedback	UserTiming 	bl	2	G	1b	AU2RMH9IZP60M	temp1	1	36	8/8/17 7:51	golf	building	building	4.595	100	1	1	bl	test	NoFeedback	UserTiming 	bl	3	G	1b	21	0AU2RMH9IZP60M	temp1	1	42	8/8/17 7:51	harp	bird	bird	2.704	100	1	1	bl	copy	Feedback	UserTiming 	bl	1	I	6b	AU2RMH9IZP60M	temp1	1	46	8/8/17 7:51	harp	bird	bird	3.117	100	1	1	bl	test	NoFeedback	UserTiming 	bl	2	I	6b	AU2RMH9IZP60M	temp1	1	106	8/8/17 7:57	harp	bird	song	14.993	0	0	0	bl	test	NoFeedback	UserTiming 	bl	3	I	6b	59	0AU2RMH9IZP60M	temp1	1	40	8/8/17 7:51	daffodil	corpse	corpse	2.842	100	1	1	bl	copy	Feedback	UserTiming 	bl	1	I	5b	AU2RMH9IZP60M	temp1	1	44	8/8/17 7:51	daffodil	corpse	corpse	2.362	100	1	1	bl	test	NoFeedback	UserTiming 	bl	2	I	5b	AU2RMH9IZP60M	temp1	1	104	8/8/17 7:57	daffodil	corpse	corpse	3.376	100	1	1	bl	test	NoFeedback	UserTiming 	bl	3	I	5b	59	0AU2RMH9IZP60M	temp1	1	21	8/8/17 7:50	hotel	fireplace	fireplace	2.848	100	1	1	bl	copy	Feedback	UserTiming 	bl	1	I	3b	AU2RMH9IZP60M	temp1	1	23	8/8/17 7:50	hotel	fireplace	fireplace	3.423	100	1	1	bl	test	NoFeedback	UserTiming 	bl	2	I	3b	AU2RMH9IZP60M	temp1	1	83	8/8/17 7:55	hotel	fireplace	fireplace	3.666	100	1	1	bl	test	NoFeedback	UserTiming 	bl	3	I	3b	59	0AU2RMH9IZP60M	temp1	1	20	8/8/17 7:49	wife	cord	cord	1.879	100	1	1	bl	copy	Feedback	UserTiming 	bl	1	I	2b	AU2RMH9IZP60M	temp1	1	22	8/8/17 7:50	wife	cord	cord	2.293	100	1	1	bl	test	NoFeedback	UserTiming 	bl	2	I	2b	AU2RMH9IZP60M	temp1	1	82	8/8/17 7:55	wife	cord	cove	5.61	50	0	0	bl	test	NoFeedback	UserTiming 	bl	3	I	2b	59	0AU2RMH9IZP60M	temp1	1	11	8/8/17 7:49	elephant	candy	candy	1.732	100	1	1	bl	copy	Feedback	UserTiming 	bl	1	I	1b	AU2RMH9IZP60M	temp1	1	17	8/8/17 7:49	elephant	candy	candy	2.444	100	1	1	bl	test	NoFeedback	UserTiming 	bl	2	I	1b	AU2RMH9IZP60M	temp1	1	77	8/8/17 7:55	elephant	candy	candy	3.757	100	1	1	bl	test	NoFeedback	UserTiming 	bl	3	I	1b	59	0AU2RMH9IZP60M	temp1	1	33	8/8/17 7:50	door	insect	insect	2.65	100	1	1	bl	copy	Feedback	UserTiming 	bl	1	J	4b	AU2RMH9IZP60M	temp1	1	37	8/8/17 7:51	door	insect	insect	2.35	100	1	1	bl	test	NoFeedback	UserTiming 	bl	2	J	4b	AU2RMH9IZP60M	temp1	1	137	8/8/17 8:00	door	insect	insect	3.671	100	1	1	bl	test	NoFeedback	UserTiming 	bl	3	J	4b	99	0AU2RMH9IZP60M	temp1	1	9	8/8/17 7:49	tank	flood	flood	1.979	100	1	1	bl	copy	Feedback	UserTiming 	bl	1	J	1b	AU2RMH9IZP60M	temp1	1	12	8/8/17 7:49	tank	flood	flood	2.246	100	1	1	bl	test	NoFeedback	UserTiming 	bl	2	J	1b	AU2RMH9IZP60M	temp1	1	112	8/8/17 7:58	tank	flood	crew	10.672	0	0	0	bl	test	NoFeedback	UserTiming 	bl	3	J	1b	99	0ATF7HBD1TFI2U	temp1	1	93	8/8/17 7:10	bullet	bagpipe	bagpipe	5.096	100	1	1	bl	copy	Feedback	UserTiming 	bl	1	A	6a	ATF7HBD1TFI2U	temp1	1	96	8/8/17 7:10	bullet	bagpipe	bagpipe	6.282	100	1	1	bl	test	NoFeedback	UserTiming 	bl	2	A	6a	ATF7HBD1TFI2U	temp1	1	97	8/8/17 7:10	bullet	bagpipe	bagpipe	10.079	100	1	1	bl	test	NoFeedback	UserTiming 	bl	3	A	6a	0	0ATF7HBD1TFI2U	temp1	1	70	8/8/17 7:07	golf	building	building	3.858	100	1	1	bl	copy	Feedback	UserTiming 	bl	1	A	5a	ATF7HBD1TFI2U	temp1	1	73	8/8/17 7:07	golf	building	building	5.181	100	1	1	bl	test	NoFeedback	UserTiming 	bl	2	A	5a	ATF7HBD1TFI2U	temp1	1	74	8/8/17 7:08	golf	building	building	2.643	100	1	1	bl	test	NoFeedback	UserTiming 	bl	3	A	5a	0	0ATF7HBD1TFI2U	temp1	1	63	8/8/17 7:06	saloon	cradle	cradle	4.573	100	1	1	bl	copy	Feedback	UserTiming 	bl	1	A	4b	ATF7HBD1TFI2U	temp1	1	66	8/8/17 7:06	saloon	cradle	cradle	3.868	100	1	1	bl	test	NoFeedback	UserTiming 	bl	2	A	4b	ATF7HBD1TFI2U	temp1	1	67	8/8/17 7:07	saloon	cradle	window	10.298	16.66666667	0	0	bl	test	NoFeedback	UserTiming 	bl	3	A	4b	0	0ATF7HBD1TFI2U	temp1	1	48	8/8/17 7:05	mother	kiss	kiss	2.687	100	1	1	bl	copy	Feedback	UserTiming 	bl	1	A	3a	ATF7HBD1TFI2U	temp1	1	53	8/8/17 7:05	mother	kiss	kiss	1.774	100	1	1	bl	test	NoFeedback	UserTiming 	bl	2	A	3a	ATF7HBD1TFI2U	temp1	1	54	8/8/17 7:05	mother	kiss	kiss	1.944	100	1	1	bl	test	NoFeedback	UserTiming 	bl	3	A	3a	0	0ATF7HBD1TFI2U	temp1	1	25	8/8/17 7:02	dust	vehicle	vehicle	7.806	100	1	1	bl	copy	Feedback	UserTiming 	bl	1	A	2a	ATF7HBD1TFI2U	temp1	1	28	8/8/17 7:03	dust	vehicle	vehicle	3.471	100	1	1	bl	test	NoFeedback	UserTiming 	bl	2	A	2a	ATF7HBD1TFI2U	temp1	1	29	8/8/17 7:03	dust	vehicle	vehicle	3.621	100	1	1	bl	test	NoFeedback	UserTiming 	bl	3	A	2a	0	0ATF7HBD1TFI2U	temp1	1	86	8/8/17 7:09	lark	strawberry	strawberry	5.363	100	1	1	bl	copy	Feedback	UserTiming 	bl	1	C	6a	ATF7HBD1TFI2U	temp1	1	89	8/8/17 7:09	lark	strawberry	strawberry	5.022	100	1	1	bl	test	NoFeedback	UserTiming 	bl	2	C	6a	ATF7HBD1TFI2U	temp1	1	92	8/8/17 7:10	lark	strawberry	strawberry	5.382	100	1	1	bl	test	NoFeedback	UserTiming 	bl	3	C	6a	2	0ATF7HBD1TFI2U	temp1	1	72	8/8/17 7:07	icebox	table	table	2.675	100	1	1	bl	copy	Feedback	UserTiming 	bl	1	C	5a	ATF7HBD1TFI2U	temp1	1	75	8/8/17 7:08	icebox	table	table	6.099	100	1	1	bl	test	NoFeedback	UserTiming 	bl	2	C	5a	ATF7HBD1TFI2U	temp1	1	78	8/8/17 7:08	icebox	table	table	4.561	100	1	1	bl	test	NoFeedback	UserTiming 	bl	3	C	5a	2	0ATF7HBD1TFI2U	temp1	1	49	8/8/17 7:05	musician	king	king	2.591	100	1	1	bl	copy	Feedback	UserTiming 	bl	1	C	3a	ATF7HBD1TFI2U	temp1	1	52	8/8/17 7:05	musician	king	king	4.32	100	1	1	bl	test	NoFeedback	UserTiming 	bl	2	C	3a	ATF7HBD1TFI2U	temp1	1	55	8/8/17 7:05	musician	king	king	2.203	100	1	1	bl	test	NoFeedback	UserTiming 	bl	3	C	3a	2	0ATF7HBD1TFI2U	temp1	1	24	8/8/17 7:02	refrigerator	factory	factory	5.29	100	1	1	bl	copy	Feedback	UserTiming 	bl	1	C	2a	ATF7HBD1TFI2U	temp1	1	27	8/8/17 7:03	refrigerator	factory	factory	9.375	100	1	1	bl	test	NoFeedback	UserTiming 	bl	2	C	2a	ATF7HBD1TFI2U	temp1	1	30	8/8/17 7:03	refrigerator	factory	factory	4.631	100	1	1	bl	test	NoFeedback	UserTiming 	bl	3	C	2a	2	0ATF7HBD1TFI2U	temp1	1	1	8/8/17 6:59	locker	ticket	ticket	12.127	100	1	1	bl	copy	Feedback	UserTiming 	bl	1	C	1a	ATF7HBD1TFI2U	temp1	1	4	8/8/17 6:59	locker	ticket	ticket	16.298	100	1	1	bl	test	NoFeedback	UserTiming 	bl	2	C	1a	ATF7HBD1TFI2U	temp1	1	7	8/8/17 7:00	locker	ticket	ticket	8.675	100	1	1	bl	test	NoFeedback	UserTiming 	bl	3	C	1a	2	0ATF7HBD1TFI2U	temp1	1	87	8/8/17 7:09	professor	army	army	6.143	100	1	1	bl	copy	Feedback	UserTiming 	bl	1	E	6a	ATF7HBD1TFI2U	temp1	1	91	8/8/17 7:10	professor	army	army	7.788	100	1	1	bl	test	NoFeedback	UserTiming 	bl	2	E	6a	ATF7HBD1TFI2U	temp1	1	99	8/8/17 7:11	professor	army	army	4.735	100	1	1	bl	test	NoFeedback	UserTiming 	bl	3	E	6a	7	0ATF7HBD1TFI2U	temp1	1	76	8/8/17 7:08	spray	apple	apple	12.645	100	1	1	bl	copy	Feedback	UserTiming 	bl	1	E	5a	ATF7HBD1TFI2U	temp1	1	80	8/8/17 7:08	spray	apple	apple	4.117	100	1	1	bl	test	NoFeedback	UserTiming 	bl	2	E	5a	ATF7HBD1TFI2U	temp1	1	88	8/8/17 7:09	spray	apple	apple	3.568	100	1	1	bl	test	NoFeedback	UserTiming 	bl	3	E	5a	7	0ATF7HBD1TFI2U	temp1	1	50	8/8/17 7:05	coin	window	window	8.607	100	1	1	bl	copy	Feedback	UserTiming 	bl	1	E	3a	ATF7HBD1TFI2U	temp1	1	56	8/8/17 7:06	coin	window	window	5.302	100	1	1	bl	test	NoFeedback	UserTiming 	bl	2	E	3a	ATF7HBD1TFI2U	temp1	1	64	8/8/17 7:06	coin	window	window	4.379	100	1	1	bl	test	NoFeedback	UserTiming 	bl	3	E	3a	7	0ATF7HBD1TFI2U	temp1	1	26	8/8/17 7:02	corn	cattle	cattle	5.937	100	1	1	bl	copy	Feedback	UserTiming 	bl	1	E	2a	ATF7HBD1TFI2U	temp1	1	31	8/8/17 7:03	corn	cattle	cattle	4.884	100	1	1	bl	test	NoFeedback	UserTiming 	bl	2	E	2a	ATF7HBD1TFI2U	temp1	1	39	8/8/17 7:04	corn	cattle	cattle	3.721	100	1	1	bl	test	NoFeedback	UserTiming 	bl	3	E	2a	7	0ATF7HBD1TFI2U	temp1	1	90	8/8/17 7:09	lemon	monk	monk	4.154	100	1	1	bl	copy	Feedback	UserTiming 	bl	1	G	6a	ATF7HBD1TFI2U	temp1	1	94	8/8/17 7:10	lemon	monk	monk	4.934	100	1	1	bl	test	NoFeedback	UserTiming 	bl	2	G	6a	ATF7HBD1TFI2U	temp1	1	116	8/8/17 7:13	lemon	monk	monk	7.721	100	1	1	bl	test	NoFeedback	UserTiming 	bl	3	G	6a	21	0ATF7HBD1TFI2U	temp1	1	81	8/8/17 7:08	hotel	fireplace	fireplace	5.286	100	1	1	bl	copy	Feedback	UserTiming 	bl	1	G	5a	ATF7HBD1TFI2U	temp1	1	85	8/8/17 7:09	hotel	fireplace	fireplace	5.387	100	1	1	bl	test	NoFeedback	UserTiming 	bl	2	G	5a	ATF7HBD1TFI2U	temp1	1	107	8/8/17 7:11	hotel	fireplace	fireplace	6.216	100	1	1	bl	test	NoFeedback	UserTiming 	bl	3	G	5a	21	0ATF7HBD1TFI2U	temp1	1	59	8/8/17 7:06	microscope	ship	ship	5.312	100	1	1	bl	copy	Feedback	UserTiming 	bl	1	G	4a	ATF7HBD1TFI2U	temp1	1	62	8/8/17 7:06	microscope	ship	ship	4.264	100	1	1	bl	test	NoFeedback	UserTiming 	bl	2	G	4a	ATF7HBD1TFI2U	temp1	1	84	8/8/17 7:09	microscope	ship	table	7.689	0	0	0	bl	test	NoFeedback	UserTiming 	bl	3	G	4a	21	0ATF7HBD1TFI2U	temp1	1	51	8/8/17 7:05	sunburn	fisherman	fisherman	7.027	100	1	1	bl	copy	Feedback	UserTiming 	bl	1	G	3a	ATF7HBD1TFI2U	temp1	1	57	8/8/17 7:06	sunburn	fisherman	fisherman	3.472	100	1	1	bl	test	NoFeedback	UserTiming 	bl	2	G	3a	ATF7HBD1TFI2U	temp1	1	79	8/8/17 7:08	sunburn	fisherman	fisherman	4.001	100	1	1	bl	test	NoFeedback	UserTiming 	bl	3	G	3a	21	0ATF7HBD1TFI2U	temp1	1	34	8/8/17 7:03	tank	flood	flood	4.163	100	1	1	bl	copy	Feedback	UserTiming 	bl	1	G	2b	ATF7HBD1TFI2U	temp1	1	38	8/8/17 7:04	tank	flood	flood	4.895	100	1	1	bl	test	NoFeedback	UserTiming 	bl	2	G	2b	ATF7HBD1TFI2U	temp1	1	60	8/8/17 7:06	tank	flood	flood	4.3	100	1	1	bl	test	NoFeedback	UserTiming 	bl	3	G	2b	21	0ATF7HBD1TFI2U	temp1	1	10	8/8/17 7:00	tower	boulder	boulder	7.105	100	1	1	bl	copy	Feedback	UserTiming 	bl	1	G	1b	ATF7HBD1TFI2U	temp1	1	14	8/8/17 7:01	tower	boulder	boulder	5.23	100	1	1	bl	test	NoFeedback	UserTiming 	bl	2	G	1b	ATF7HBD1TFI2U	temp1	1	36	8/8/17 7:03	tower	boulder	boulder	7.346	100	1	1	bl	test	NoFeedback	UserTiming 	bl	3	G	1b	21	0ATF7HBD1TFI2U	temp1	1	42	8/8/17 7:04	thorn	cash	cash	6.171	100	1	1	bl	copy	Feedback	UserTiming 	bl	1	I	6b	ATF7HBD1TFI2U	temp1	1	46	8/8/17 7:05	thorn	cash	cash	3.247	100	1	1	bl	test	NoFeedback	UserTiming 	bl	2	I	6b	ATF7HBD1TFI2U	temp1	1	106	8/8/17 7:11	thorn	cash	cradle	5.364	40	0	0	bl	test	NoFeedback	UserTiming 	bl	3	I	6b	59	0ATF7HBD1TFI2U	temp1	1	32	8/8/17 7:03	sunset	pudding	pudding	3.525	100	1	1	bl	copy	Feedback	UserTiming 	bl	1	I	4b	ATF7HBD1TFI2U	temp1	1	35	8/8/17 7:03	sunset	pudding	pudding	3.491	100	1	1	bl	test	NoFeedback	UserTiming 	bl	2	I	4b	ATF7HBD1TFI2U	temp1	1	95	8/8/17 7:10	sunset	pudding	corn	10.825	18.18181818	0	0	bl	test	NoFeedback	UserTiming 	bl	3	I	4b	59	0ATF7HBD1TFI2U	temp1	1	21	8/8/17 7:02	cottage	letter	letter	3.376	100	1	1	bl	copy	Feedback	UserTiming 	bl	1	I	3b	ATF7HBD1TFI2U	temp1	1	23	8/8/17 7:02	cottage	letter	letter	3.66	100	1	1	bl	test	NoFeedback	UserTiming 	bl	2	I	3b	ATF7HBD1TFI2U	temp1	1	83	8/8/17 7:09	cottage	letter	corn	4.912	20	0	0	bl	test	NoFeedback	UserTiming 	bl	3	I	3b	59	0ATF7HBD1TFI2U	temp1	1	20	8/8/17 7:02	troops	coffee	coffee	10.087	100	1	1	bl	copy	Feedback	UserTiming 	bl	1	I	2b	ATF7HBD1TFI2U	temp1	1	22	8/8/17 7:02	troops	coffee	coffee	3.82	100	1	1	bl	test	NoFeedback	UserTiming 	bl	2	I	2b	ATF7HBD1TFI2U	temp1	1	82	8/8/17 7:09	troops	coffee	flood	10.678	18.18181818	0	0	bl	test	NoFeedback	UserTiming 	bl	3	I	2b	59	0ATF7HBD1TFI2U	temp1	1	11	8/8/17 7:00	earth	nursery	nursery	3.226	100	1	1	bl	copy	Feedback	UserTiming 	bl	1	I	1b	ATF7HBD1TFI2U	temp1	1	17	8/8/17 7:01	earth	nursery	nursery	8.565	100	1	1	bl	test	NoFeedback	UserTiming 	bl	2	I	1b	ATF7HBD1TFI2U	temp1	1	77	8/8/17 7:08	earth	nursery	nursery	10.621	100	1	1	bl	test	NoFeedback	UserTiming 	bl	3	I	1b	59	0ATF7HBD1TFI2U	temp1	1	33	8/8/17 7:03	swamp	macaroni	macaroni	6.214	100	1	1	bl	copy	Feedback	UserTiming 	bl	1	J	4b	ATF7HBD1TFI2U	temp1	1	37	8/8/17 7:04	swamp	macaroni	macaroni	5.797	100	1	1	bl	test	NoFeedback	UserTiming 	bl	2	J	4b	ATF7HBD1TFI2U	temp1	1	137	8/8/17 7:15	swamp	macaroni	house	7.601	15.38461538	0	0	bl	test	NoFeedback	UserTiming 	bl	3	J	4b	99	0ATF7HBD1TFI2U	temp1	1	15	8/8/17 7:01	camp	frog	frog	2.953	100	1	1	bl	copy	Feedback	UserTiming 	bl	1	J	3b	ATF7HBD1TFI2U	temp1	1	19	8/8/17 7:02	camp	frog	frog	2.906	100	1	1	bl	test	NoFeedback	UserTiming 	bl	2	J	3b	ATF7HBD1TFI2U	temp1	1	119	8/8/17 7:13	camp	frog	frog	2.584	100	1	1	bl	test	NoFeedback	UserTiming 	bl	3	J	3b	99	0ATF7HBD1TFI2U	temp1	1	13	8/8/17 7:01	skillet	oats	oats	7.134	100	1	1	bl	copy	Feedback	UserTiming 	bl	1	J	2b	ATF7HBD1TFI2U	temp1	1	18	8/8/17 7:01	skillet	oats	oats	3.535	100	1	1	bl	test	NoFeedback	UserTiming 	bl	2	J	2b	ATF7HBD1TFI2U	temp1	1	118	8/8/17 7:13	skillet	oats	fisherman	7.832	15.38461538	0	0	bl	test	NoFeedback	UserTiming 	bl	3	J	2b	99	0AS2WTWYVRW9BV	temp1	1	2	8/8/17 7:08	temple	flesh		7.064	0	0	0	bl	copy	Feedback	UserTiming 	bl	1	A	1a	AS2WTWYVRW9BV	temp1	1	5	8/8/17 7:09	temple	flesh	flesh	5.529	100	1	1	bl	test	NoFeedback	UserTiming 	bl	2	A	1a	AS2WTWYVRW9BV	temp1	1	6	8/8/17 7:09	temple	flesh	flood	6.991	40	0	0	bl	test	NoFeedback	UserTiming 	bl	3	A	1a	0	0AS2WTWYVRW9BV	temp1	1	70	8/8/17 7:18	daffodil	corpse	corpse	3.754	100	1	1	bl	copy	Feedback	UserTiming 	bl	1	A	5a	AS2WTWYVRW9BV	temp1	1	73	8/8/17 7:18	daffodil	corpse	corpse	3.058	100	1	1	bl	test	NoFeedback	UserTiming 	bl	2	A	5a	AS2WTWYVRW9BV	temp1	1	74	8/8/17 7:18	daffodil	corpse	prarie	2.754	33.33333333	0	0	bl	test	NoFeedback	UserTiming 	bl	3	A	5a	0	0AS2WTWYVRW9BV	temp1	1	63	8/8/17 7:17	tower	boulder	boulder	2.433	100	1	1	bl	copy	Feedback	UserTiming 	bl	1	A	4b	AS2WTWYVRW9BV	temp1	1	66	8/8/17 7:17	tower	boulder	builder	2.724	85.71428571	1	0	bl	test	NoFeedback	UserTiming 	bl	2	A	4b	AS2WTWYVRW9BV	temp1	1	67	8/8/17 7:17	tower	boulder	builder	2.391	85.71428571	1	0	bl	test	NoFeedback	UserTiming 	bl	3	A	4b	0	0AS2WTWYVRW9BV	temp1	1	48	8/8/17 7:15	avalanche	animal	animal	5.366	100	1	1	bl	copy	Feedback	UserTiming 	bl	1	A	3a	AS2WTWYVRW9BV	temp1	1	53	8/8/17 7:16	avalanche	animal	animal	60.6	100	1	1	bl	test	NoFeedback	UserTiming 	bl	2	A	3a	AS2WTWYVRW9BV	temp1	1	54	8/8/17 7:16	avalanche	animal	animal	2.564	100	1	1	bl	test	NoFeedback	UserTiming 	bl	3	A	3a	0	0AS2WTWYVRW9BV	temp1	1	25	8/8/17 7:12	sunburn	fisherman	fisherman	4.801	100	1	1	bl	copy	Feedback	UserTiming 	bl	1	A	2a	AS2WTWYVRW9BV	temp1	1	28	8/8/17 7:12	sunburn	fisherman	fisherman	5.229	100	1	1	bl	test	NoFeedback	UserTiming 	bl	2	A	2a	AS2WTWYVRW9BV	temp1	1	29	8/8/17 7:13	sunburn	fisherman	fisherman	4.922	100	1	1	bl	test	NoFeedback	UserTiming 	bl	3	A	2a	0	0AS2WTWYVRW9BV	temp1	1	49	8/8/17 7:15	hotel	fireplace	fireplace	5.903	100	1	1	bl	copy	Feedback	UserTiming 	bl	1	C	3a	AS2WTWYVRW9BV	temp1	1	52	8/8/17 7:15	hotel	fireplace	fireplace	12.026	100	1	1	bl	test	NoFeedback	UserTiming 	bl	2	C	3a	AS2WTWYVRW9BV	temp1	1	55	8/8/17 7:16	hotel	fireplace	fireplace	3.28	100	1	1	bl	test	NoFeedback	UserTiming 	bl	3	C	3a	2	0AS2WTWYVRW9BV	temp1	1	24	8/8/17 7:12	bullet	bagpipe	bagpipe	5.851	100	1	1	bl	copy	Feedback	UserTiming 	bl	1	C	2a	AS2WTWYVRW9BV	temp1	1	27	8/8/17 7:12	bullet	bagpipe	bagpipe	6.372	100	1	1	bl	test	NoFeedback	UserTiming 	bl	2	C	2a	AS2WTWYVRW9BV	temp1	1	30	8/8/17 7:13	bullet	bagpipe	bagpipe	5.451	100	1	1	bl	test	NoFeedback	UserTiming 	bl	3	C	2a	2	0AS2WTWYVRW9BV	temp1	1	76	8/8/17 7:18	mother	kiss	kiss	16.862	100	1	1	bl	copy	Feedback	UserTiming 	bl	1	E	5a	AS2WTWYVRW9BV	temp1	1	80	8/8/17 7:18	mother	kiss	kiss	2.411	100	1	1	bl	test	NoFeedback	UserTiming 	bl	2	E	5a	AS2WTWYVRW9BV	temp1	1	88	8/8/17 7:19	mother	kiss	maiden	3.661	20	0	0	bl	test	NoFeedback	UserTiming 	bl	3	E	5a	7	0AS2WTWYVRW9BV	temp1	1	58	8/8/17 7:17	slipper	timepiece	timepiece	3.605	100	1	1	bl	copy	Feedback	UserTiming 	bl	1	E	4a	AS2WTWYVRW9BV	temp1	1	61	8/8/17 7:17	slipper	timepiece	timepiece	5.85	100	1	1	bl	test	NoFeedback	UserTiming 	bl	2	E	4a	AS2WTWYVRW9BV	temp1	1	69	8/8/17 7:17	slipper	timepiece	timepiece	2.712	100	1	1	bl	test	NoFeedback	UserTiming 	bl	3	E	4a	7	0AS2WTWYVRW9BV	temp1	1	50	8/8/17 7:15	trumpet	house	house	4.909	100	1	1	bl	copy	Feedback	UserTiming 	bl	1	E	3a	AS2WTWYVRW9BV	temp1	1	56	8/8/17 7:17	trumpet	house	house	2.405	100	1	1	bl	test	NoFeedback	UserTiming 	bl	2	E	3a	AS2WTWYVRW9BV	temp1	1	64	8/8/17 7:17	trumpet	house	house	2.477	100	1	1	bl	test	NoFeedback	UserTiming 	bl	3	E	3a	7	0AS2WTWYVRW9BV	temp1	1	3	8/8/17 7:08	tank	flood	flood	5.407	100	1	1	bl	copy	Feedback	UserTiming 	bl	1	E	1a	AS2WTWYVRW9BV	temp1	1	8	8/8/17 7:09	tank	flood	food	10.387	88.88888889	1	0	bl	test	NoFeedback	UserTiming 	bl	2	E	1a	AS2WTWYVRW9BV	temp1	1	16	8/8/17 7:11	tank	flood	food	4.905	88.88888889	1	0	bl	test	NoFeedback	UserTiming 	bl	3	E	1a	7	0AS2WTWYVRW9BV	temp1	1	90	8/8/17 7:23	sunset	pudding	pudding	190.103	100	1	1	bl	copy	Feedback	UserTiming 	bl	1	G	6a	AS2WTWYVRW9BV	temp1	1	94	8/8/17 7:24	sunset	pudding	pudding	31.706	100	1	1	bl	test	NoFeedback	UserTiming 	bl	2	G	6a	AS2WTWYVRW9BV	temp1	1	116	8/8/17 7:26	sunset	pudding	prarie	3.851	30.76923077	0	0	bl	test	NoFeedback	UserTiming 	bl	3	G	6a	21	0AS2WTWYVRW9BV	temp1	1	59	8/8/17 7:17	microscope	ship	ship	1.849	100	1	1	bl	copy	Feedback	UserTiming 	bl	1	G	4a	AS2WTWYVRW9BV	temp1	1	62	8/8/17 7:17	microscope	ship	ship	3.48	100	1	1	bl	test	NoFeedback	UserTiming 	bl	2	G	4a	AS2WTWYVRW9BV	temp1	1	84	8/8/17 7:19	microscope	ship	ship	3.931	100	1	1	bl	test	NoFeedback	UserTiming 	bl	3	G	4a	21	0AS2WTWYVRW9BV	temp1	1	51	8/8/17 7:15	oven	automobile	automobile	6.125	100	1	1	bl	copy	Feedback	UserTiming 	bl	1	G	3a	AS2WTWYVRW9BV	temp1	1	57	8/8/17 7:17	oven	automobile	automobile	4.764	100	1	1	bl	test	NoFeedback	UserTiming 	bl	2	G	3a	AS2WTWYVRW9BV	temp1	1	79	8/8/17 7:18	oven	automobile	dust	3.969	28.57142857	0	0	bl	test	NoFeedback	UserTiming 	bl	3	G	3a	21	0AS2WTWYVRW9BV	temp1	1	34	8/8/17 7:13	dust	vehicle	vehicle	4.892	100	1	1	bl	copy	Feedback	UserTiming 	bl	1	G	2b	AS2WTWYVRW9BV	temp1	1	38	8/8/17 7:13	dust	vehicle	vehicle	5.239	100	1	1	bl	test	NoFeedback	UserTiming 	bl	2	G	2b	AS2WTWYVRW9BV	temp1	1	60	8/8/17 7:17	dust	vehicle	vehicle	4.813	100	1	1	bl	test	NoFeedback	UserTiming 	bl	3	G	2b	21	0AS2WTWYVRW9BV	temp1	1	10	8/8/17 7:09	cottage	letter	letter	5.815	100	1	1	bl	copy	Feedback	UserTiming 	bl	1	G	1b	AS2WTWYVRW9BV	temp1	1	14	8/8/17 7:11	cottage	letter	letter	72.202	100	1	1	bl	test	NoFeedback	UserTiming 	bl	2	G	1b	AS2WTWYVRW9BV	temp1	1	36	8/8/17 7:13	cottage	letter	building	6.144	14.28571429	0	0	bl	test	NoFeedback	UserTiming 	bl	3	G	1b	21	0AS2WTWYVRW9BV	temp1	1	32	8/8/17 7:13	troops	coffee	coffee	4.821	100	1	1	bl	copy	Feedback	UserTiming 	bl	1	I	4b	AS2WTWYVRW9BV	temp1	1	35	8/8/17 7:13	troops	coffee	coffee	4.823	100	1	1	bl	test	NoFeedback	UserTiming 	bl	2	I	4b	AS2WTWYVRW9BV	temp1	1	95	8/8/17 7:24	troops	coffee	coffee	2.27	100	1	1	bl	test	NoFeedback	UserTiming 	bl	3	I	4b	59	0AS2WTWYVRW9BV	temp1	1	21	8/8/17 7:12	footwear	acrobat	acrobat	6.204	100	1	1	bl	copy	Feedback	UserTiming 	bl	1	I	3b	AS2WTWYVRW9BV	temp1	1	23	8/8/17 7:12	footwear	acrobat	acrobat	5.723	100	1	1	bl	test	NoFeedback	UserTiming 	bl	2	I	3b	AS2WTWYVRW9BV	temp1	1	83	8/8/17 7:19	footwear	acrobat	acrobat	3.894	100	1	1	bl	test	NoFeedback	UserTiming 	bl	3	I	3b	59	0AS2WTWYVRW9BV	temp1	1	43	8/8/17 7:14	camp	frog	frog	3.081	100	1	1	bl	copy	Feedback	UserTiming 	bl	1	J	6b	AS2WTWYVRW9BV	temp1	1	47	8/8/17 7:15	camp	frog	frog	4.833	100	1	1	bl	test	NoFeedback	UserTiming 	bl	2	J	6b	AS2WTWYVRW9BV	temp1	1	147	8/8/17 7:28	camp	frog	lemon	4.944	22.22222222	0	0	bl	test	NoFeedback	UserTiming 	bl	3	J	6b	99	0AS2WTWYVRW9BV	temp1	1	33	8/8/17 7:13	skillet	oats	oats	5.12	100	1	1	bl	copy	Feedback	UserTiming 	bl	1	J	4b	AS2WTWYVRW9BV	temp1	1	37	8/8/17 7:13	skillet	oats	oats	4.744	100	1	1	bl	test	NoFeedback	UserTiming 	bl	2	J	4b	AS2WTWYVRW9BV	temp1	1	137	8/8/17 7:27	skillet	oats	corn	5.115	25	0	0	bl	test	NoFeedback	UserTiming 	bl	3	J	4b	99	0AS2WTWYVRW9BV	temp1	1	13	8/8/17 7:10	mule	infant	infant	5.157	100	1	1	bl	copy	Feedback	UserTiming 	bl	1	J	2b	AS2WTWYVRW9BV	temp1	1	18	8/8/17 7:11	mule	infant	infant	10.123	100	1	1	bl	test	NoFeedback	UserTiming 	bl	2	J	2b	AS2WTWYVRW9BV	temp1	1	118	8/8/17 7:26	mule	infant	infant	2.831	100	1	1	bl	test	NoFeedback	UserTiming 	bl	3	J	2b	99	0AS2WTWYVRW9BV	temp1	1	9	8/8/17 7:09	maiden	banker	banker	5.519	100	1	1	bl	copy	Feedback	UserTiming 	bl	1	J	1b	AS2WTWYVRW9BV	temp1	1	12	8/8/17 7:09	maiden	banker	banker	4.842	100	1	1	bl	test	NoFeedback	UserTiming 	bl	2	J	1b	AS2WTWYVRW9BV	temp1	1	112	8/8/17 7:25	maiden	banker	jelly	5.51	18.18181818	0	0	bl	test	NoFeedback	UserTiming 	bl	3	J	1b	99	0AQ0UYN7D6FU3F	temp1	1	70	8/8/17 7:21	tank	flood	flood	7.972	100	1	1	bl	copy	Feedback	UserTiming 	bl	1	A	5a	AQ0UYN7D6FU3F	temp1	1	73	8/8/17 7:22	tank	flood	flood	11.334	100	1	1	bl	test	NoFeedback	UserTiming 	bl	2	A	5a	AQ0UYN7D6FU3F	temp1	1	74	8/8/17 7:22	tank	flood	flood	9.881	100	1	1	bl	test	NoFeedback	UserTiming 	bl	3	A	5a	0	0AQ0UYN7D6FU3F	temp1	1	25	8/8/17 7:15	camp	frog	frog	7.46	100	1	1	bl	copy	Feedback	UserTiming 	bl	1	A	2a	AQ0UYN7D6FU3F	temp1	1	28	8/8/17 7:15	camp	frog	frog	4.98	100	1	1	bl	test	NoFeedback	UserTiming 	bl	2	A	2a	AQ0UYN7D6FU3F	temp1	1	29	8/8/17 7:15	camp	frog	frog	4.87	100	1	1	bl	test	NoFeedback	UserTiming 	bl	3	A	2a	0	0AQ0UYN7D6FU3F	temp1	1	2	8/8/17 7:11	musician	king	king	12.836	100	1	1	bl	copy	Feedback	UserTiming 	bl	1	A	1a	AQ0UYN7D6FU3F	temp1	1	5	8/8/17 7:11	musician	king	king	6.922	100	1	1	bl	test	NoFeedback	UserTiming 	bl	2	A	1a	AQ0UYN7D6FU3F	temp1	1	6	8/8/17 7:11	musician	king	king	7.514	100	1	1	bl	test	NoFeedback	UserTiming 	bl	3	A	1a	0	0AQ0UYN7D6FU3F	temp1	1	86	8/8/17 7:23	mother	kiss	kiss	6.03	100	1	1	bl	copy	Feedback	UserTiming 	bl	1	C	6a	AQ0UYN7D6FU3F	temp1	1	89	8/8/17 7:24	mother	kiss	kiss	5.74	100	1	1	bl	test	NoFeedback	UserTiming 	bl	2	C	6a	AQ0UYN7D6FU3F	temp1	1	92	8/8/17 7:24	mother	kiss	kiss	4.94	100	1	1	bl	test	NoFeedback	UserTiming 	bl	3	C	6a	2	0AQ0UYN7D6FU3F	temp1	1	72	8/8/17 7:21	slipper	timepiece	timepiece	9.691	100	1	1	bl	copy	Feedback	UserTiming 	bl	1	C	5a	AQ0UYN7D6FU3F	temp1	1	75	8/8/17 7:22	slipper	timepiece	timepiece	9.043	100	1	1	bl	test	NoFeedback	UserTiming 	bl	2	C	5a	AQ0UYN7D6FU3F	temp1	1	78	8/8/17 7:22	slipper	timepiece		7.039	0	0	0	bl	test	NoFeedback	UserTiming 	bl	3	C	5a	2	1AQ0UYN7D6FU3F	temp1	1	65	8/8/17 7:21	jury	butcher	butcher	7.071	100	1	1	bl	copy	Feedback	UserTiming 	bl	1	C	4b	AQ0UYN7D6FU3F	temp1	1	68	8/8/17 7:21	jury	butcher	butcher	6.8	100	1	1	bl	test	NoFeedback	UserTiming 	bl	2	C	4b	AQ0UYN7D6FU3F	temp1	1	71	8/8/17 7:21	jury	butcher		6.819	0	0	0	bl	test	NoFeedback	UserTiming 	bl	3	C	4b	2	1AQ0UYN7D6FU3F	temp1	1	49	8/8/17 7:19	troops	coffee	coffee	7.497	100	1	1	bl	copy	Feedback	UserTiming 	bl	1	C	3a	AQ0UYN7D6FU3F	temp1	1	52	8/8/17 7:19	troops	coffee	coffee	6.24	100	1	1	bl	test	NoFeedback	UserTiming 	bl	2	C	3a	AQ0UYN7D6FU3F	temp1	1	55	8/8/17 7:19	troops	coffee	coffee	5.098	100	1	1	bl	test	NoFeedback	UserTiming 	bl	3	C	3a	2	0AQ0UYN7D6FU3F	temp1	1	1	8/8/17 7:10	refrigerator	factory	factory	26.609	100	1	1	bl	copy	Feedback	UserTiming 	bl	1	C	1a	AQ0UYN7D6FU3F	temp1	1	4	8/8/17 7:11	refrigerator	factory	factory	7.941	100	1	1	bl	test	NoFeedback	UserTiming 	bl	2	C	1a	AQ0UYN7D6FU3F	temp1	1	7	8/8/17 7:11	refrigerator	factory	factory	8.03	100	1	1	bl	test	NoFeedback	UserTiming 	bl	3	C	1a	2	0AQ0UYN7D6FU3F	temp1	1	87	8/8/17 7:23	sunburn	fisherman	fisherman	9.641	100	1	1	bl	copy	Feedback	UserTiming 	bl	1	E	6a	AQ0UYN7D6FU3F	temp1	1	91	8/8/17 7:24	sunburn	fisherman	fisherman	7.811	100	1	1	bl	test	NoFeedback	UserTiming 	bl	2	E	6a	AQ0UYN7D6FU3F	temp1	1	99	8/8/17 7:25	sunburn	fisherman	fisherman	8.399	100	1	1	bl	test	NoFeedback	UserTiming 	bl	3	E	6a	7	0AQ0UYN7D6FU3F	temp1	1	76	8/8/17 7:22	sunset	pudding	pudding	7.58	100	1	1	bl	copy	Feedback	UserTiming 	bl	1	E	5a	AQ0UYN7D6FU3F	temp1	1	80	8/8/17 7:23	sunset	pudding	pudding	6.491	100	1	1	bl	test	NoFeedback	UserTiming 	bl	2	E	5a	AQ0UYN7D6FU3F	temp1	1	88	8/8/17 7:24	sunset	pudding	pudding	7.549	100	1	1	bl	test	NoFeedback	UserTiming 	bl	3	E	5a	7	0AQ0UYN7D6FU3F	temp1	1	3	8/8/17 7:11	spray	apple	apple	6.868	100	1	1	bl	copy	Feedback	UserTiming 	bl	1	E	1a	AQ0UYN7D6FU3F	temp1	1	8	8/8/17 7:11	spray	apple	apple	5.666	100	1	1	bl	test	NoFeedback	UserTiming 	bl	2	E	1a	AQ0UYN7D6FU3F	temp1	1	16	8/8/17 7:13	spray	apple	apple	8.03	100	1	1	bl	test	NoFeedback	UserTiming 	bl	3	E	1a	7	0AQ0UYN7D6FU3F	temp1	1	81	8/8/17 7:23	wife	cord	cord	6.823	100	1	1	bl	copy	Feedback	UserTiming 	bl	1	G	5a	AQ0UYN7D6FU3F	temp1	1	85	8/8/17 7:23	wife	cord	cord	7.71	100	1	1	bl	test	NoFeedback	UserTiming 	bl	2	G	5a	AQ0UYN7D6FU3F	temp1	1	107	8/8/17 7:26	wife	cord	cord	6.381	100	1	1	bl	test	NoFeedback	UserTiming 	bl	3	G	5a	21	0AQ0UYN7D6FU3F	temp1	1	59	8/8/17 7:20	tower	boulder	boulder	8.2	100	1	1	bl	copy	Feedback	UserTiming 	bl	1	G	4a	AQ0UYN7D6FU3F	temp1	1	62	8/8/17 7:20	tower	boulder	boulder	5.495	100	1	1	bl	test	NoFeedback	UserTiming 	bl	2	G	4a	AQ0UYN7D6FU3F	temp1	1	84	8/8/17 7:23	tower	boulder	boulder	6.71	100	1	1	bl	test	NoFeedback	UserTiming 	bl	3	G	4a	21	0AQ0UYN7D6FU3F	temp1	1	51	8/8/17 7:19	alligator	bottle	bottle	8.951	100	1	1	bl	copy	Feedback	UserTiming 	bl	1	G	3a	AQ0UYN7D6FU3F	temp1	1	57	8/8/17 7:20	alligator	bottle	bottle	7.179	100	1	1	bl	test	NoFeedback	UserTiming 	bl	2	G	3a	AQ0UYN7D6FU3F	temp1	1	79	8/8/17 7:22	alligator	bottle		6.2	0	0	0	bl	test	NoFeedback	UserTiming 	bl	3	G	3a	21	1AQ0UYN7D6FU3F	temp1	1	42	8/8/17 7:17	icebox	table	table	7.24	100	1	1	bl	copy	Feedback	UserTiming 	bl	1	I	6b	AQ0UYN7D6FU3F	temp1	1	46	8/8/17 7:18	icebox	table	table	6.872	100	1	1	bl	test	NoFeedback	UserTiming 	bl	2	I	6b	AQ0UYN7D6FU3F	temp1	1	106	8/8/17 7:26	icebox	table		4.792	0	0	0	bl	test	NoFeedback	UserTiming 	bl	3	I	6b	59	1AQ0UYN7D6FU3F	temp1	1	32	8/8/17 7:16	maiden	banker	banker	8.574	100	1	1	bl	copy	Feedback	UserTiming 	bl	1	I	4b	AQ0UYN7D6FU3F	temp1	1	35	8/8/17 7:16	maiden	banker	banker	9.424	100	1	1	bl	test	NoFeedback	UserTiming 	bl	2	I	4b	AQ0UYN7D6FU3F	temp1	1	95	8/8/17 7:24	maiden	banker		4.808	0	0	0	bl	test	NoFeedback	UserTiming 	bl	3	I	4b	59	1AQ0UYN7D6FU3F	temp1	1	21	8/8/17 7:14	door	insect	insect	16.78	100	1	1	bl	copy	Feedback	UserTiming 	bl	1	I	3b	AQ0UYN7D6FU3F	temp1	1	23	8/8/17 7:14	door	insect	insect	7.562	100	1	1	bl	test	NoFeedback	UserTiming 	bl	2	I	3b	AQ0UYN7D6FU3F	temp1	1	83	8/8/17 7:23	door	insect		6.506	0	0	0	bl	test	NoFeedback	UserTiming 	bl	3	I	3b	59	1AQ0UYN7D6FU3F	temp1	1	20	8/8/17 7:14	coin	window	window	15.231	100	1	1	bl	copy	Feedback	UserTiming 	bl	1	I	2b	AQ0UYN7D6FU3F	temp1	1	22	8/8/17 7:14	coin	window	window	9.941	100	1	1	bl	test	NoFeedback	UserTiming 	bl	2	I	2b	AQ0UYN7D6FU3F	temp1	1	82	8/8/17 7:23	coin	window		5.14	0	0	0	bl	test	NoFeedback	UserTiming 	bl	3	I	2b	59	1AQ0UYN7D6FU3F	temp1	1	11	8/8/17 7:12	thorn	cash	cash	6.42	100	1	1	bl	copy	Feedback	UserTiming 	bl	1	I	1b	AQ0UYN7D6FU3F	temp1	1	17	8/8/17 7:13	thorn	cash	cash	6.743	100	1	1	bl	test	NoFeedback	UserTiming 	bl	2	I	1b	AQ0UYN7D6FU3F	temp1	1	77	8/8/17 7:22	thorn	cash		6.518	0	0	0	bl	test	NoFeedback	UserTiming 	bl	3	I	1b	59	1AQ0UYN7D6FU3F	temp1	1	43	8/8/17 7:18	lark	strawberry	strawberry	10.131	100	1	1	bl	copy	Feedback	UserTiming 	bl	1	J	6b	AQ0UYN7D6FU3F	temp1	1	47	8/8/17 7:18	lark	strawberry	strawberry	22.312	100	1	1	bl	test	NoFeedback	UserTiming 	bl	2	J	6b	AQ0UYN7D6FU3F	temp1	1	147	8/8/17 7:31	lark	strawberry	strawberry	8.991	100	1	1	bl	test	NoFeedback	UserTiming 	bl	3	J	6b	99	0AQ0UYN7D6FU3F	temp1	1	41	8/8/17 7:17	microscope	ship	ship	6.918	100	1	1	bl	copy	Feedback	UserTiming 	bl	1	J	5b	AQ0UYN7D6FU3F	temp1	1	45	8/8/17 7:18	microscope	ship	ship	5.699	100	1	1	bl	test	NoFeedback	UserTiming 	bl	2	J	5b	AQ0UYN7D6FU3F	temp1	1	145	8/8/17 7:31	microscope	ship		5.331	0	0	0	bl	test	NoFeedback	UserTiming 	bl	3	J	5b	99	1AQ0UYN7D6FU3F	temp1	1	33	8/8/17 7:16	hotel	fireplace	fireplace	21.001	100	1	1	bl	copy	Feedback	UserTiming 	bl	1	J	4b	AQ0UYN7D6FU3F	temp1	1	37	8/8/17 7:17	hotel	fireplace	fireplace	11.919	100	1	1	bl	test	NoFeedback	UserTiming 	bl	2	J	4b	AQ0UYN7D6FU3F	temp1	1	137	8/8/17 7:30	hotel	fireplace		11.072	0	0	0	bl	test	NoFeedback	UserTiming 	bl	3	J	4b	99	1AQ0UYN7D6FU3F	temp1	1	15	8/8/17 7:13	chin	soil	soil	10.938	100	1	1	bl	copy	Feedback	UserTiming 	bl	1	J	3b	AQ0UYN7D6FU3F	temp1	1	19	8/8/17 7:13	chin	soil	soil	6.671	100	1	1	bl	test	NoFeedback	UserTiming 	bl	2	J	3b	AQ0UYN7D6FU3F	temp1	1	119	8/8/17 7:27	chin	soil	soil	7.75	100	1	1	bl	test	NoFeedback	UserTiming 	bl	3	J	3b	99	0AQ0UYN7D6FU3F	temp1	1	9	8/8/17 7:12	daffodil	corpse	corpse	8.911	100	1	1	bl	copy	Feedback	UserTiming 	bl	1	J	1b	AQ0UYN7D6FU3F	temp1	1	12	8/8/17 7:12	daffodil	corpse	corpse	10.111	100	1	1	bl	test	NoFeedback	UserTiming 	bl	2	J	1b	AQ0UYN7D6FU3F	temp1	1	112	8/8/17 7:27	daffodil	corpse	kill	8.559	0	0	0	bl	test	NoFeedback	UserTiming 	bl	3	J	1b	99	0ANK8K5WTHJ61C	temp1	1	93	8/8/17 8:42	temple	flesh	flesh	4.961	100	1	1	bl	copy	Feedback	UserTiming 	bl	1	A	6a	ANK8K5WTHJ61C	temp1	1	96	8/8/17 8:43	temple	flesh	flesh	4.888	100	1	1	bl	test	NoFeedback	UserTiming 	bl	2	A	6a	ANK8K5WTHJ61C	temp1	1	97	8/8/17 8:43	temple	flesh	flesh	4.72	100	1	1	bl	test	NoFeedback	UserTiming 	bl	3	A	6a	0	0ANK8K5WTHJ61C	temp1	1	70	8/8/17 8:39	golf	building	building	6.547	100	1	1	bl	copy	Feedback	UserTiming 	bl	1	A	5a	ANK8K5WTHJ61C	temp1	1	73	8/8/17 8:40	golf	building	building	4.862	100	1	1	bl	test	NoFeedback	UserTiming 	bl	2	A	5a	ANK8K5WTHJ61C	temp1	1	74	8/8/17 8:40	golf	building	building	4.912	100	1	1	bl	test	NoFeedback	UserTiming 	bl	3	A	5a	0	0ANK8K5WTHJ61C	temp1	1	63	8/8/17 8:38	valley	alcohol	alcohol	6.026	100	1	1	bl	copy	Feedback	UserTiming 	bl	1	A	4b	ANK8K5WTHJ61C	temp1	1	66	8/8/17 8:39	valley	alcohol	alcohol	16.331	100	1	1	bl	test	NoFeedback	UserTiming 	bl	2	A	4b	ANK8K5WTHJ61C	temp1	1	67	8/8/17 8:39	valley	alcohol	alcohol	5.26	100	1	1	bl	test	NoFeedback	UserTiming 	bl	3	A	4b	0	0ANK8K5WTHJ61C	temp1	1	48	8/8/17 8:36	skillet	oats	oats	11.075	100	1	1	bl	copy	Feedback	UserTiming 	bl	1	A	3a	ANK8K5WTHJ61C	temp1	1	53	8/8/17 8:37	skillet	oats	oats	4.674	100	1	1	bl	test	NoFeedback	UserTiming 	bl	2	A	3a	ANK8K5WTHJ61C	temp1	1	54	8/8/17 8:37	skillet	oats	oats	5.144	100	1	1	bl	test	NoFeedback	UserTiming 	bl	3	A	3a	0	0ANK8K5WTHJ61C	temp1	1	25	8/8/17 8:33	avalanche	animal	animal	8.6	100	1	1	bl	copy	Feedback	UserTiming 	bl	1	A	2a	ANK8K5WTHJ61C	temp1	1	28	8/8/17 8:33	avalanche	animal	animal	8.439	100	1	1	bl	test	NoFeedback	UserTiming 	bl	2	A	2a	ANK8K5WTHJ61C	temp1	1	29	8/8/17 8:33	avalanche	animal	animal	4.736	100	1	1	bl	test	NoFeedback	UserTiming 	bl	3	A	2a	0	0ANK8K5WTHJ61C	temp1	1	2	8/8/17 8:29	jury	butcher	butcher	5.729	100	1	1	bl	copy	Feedback	UserTiming 	bl	1	A	1a	ANK8K5WTHJ61C	temp1	1	5	8/8/17 8:30	jury	butcher	butcher	4.973	100	1	1	bl	test	NoFeedback	UserTiming 	bl	2	A	1a	ANK8K5WTHJ61C	temp1	1	6	8/8/17 8:30	jury	butcher	butcher	10.344	100	1	1	bl	test	NoFeedback	UserTiming 	bl	3	A	1a	0	0ANK8K5WTHJ61C	temp1	1	86	8/8/17 8:41	daffodil	corpse	corpse	4.839	100	1	1	bl	copy	Feedback	UserTiming 	bl	1	C	6a	ANK8K5WTHJ61C	temp1	1	89	8/8/17 8:42	daffodil	corpse	corpse	4.669	100	1	1	bl	test	NoFeedback	UserTiming 	bl	2	C	6a	ANK8K5WTHJ61C	temp1	1	92	8/8/17 8:42	daffodil	corpse	corpse	4.605	100	1	1	bl	test	NoFeedback	UserTiming 	bl	3	C	6a	2	0ANK8K5WTHJ61C	temp1	1	72	8/8/17 8:40	corn	cattle	cattle	4.667	100	1	1	bl	copy	Feedback	UserTiming 	bl	1	C	5a	ANK8K5WTHJ61C	temp1	1	75	8/8/17 8:40	corn	cattle	cattle	4.682	100	1	1	bl	test	NoFeedback	UserTiming 	bl	2	C	5a	ANK8K5WTHJ61C	temp1	1	78	8/8/17 8:41	corn	cattle	cattle	4.682	100	1	1	bl	test	NoFeedback	UserTiming 	bl	3	C	5a	2	0ANK8K5WTHJ61C	temp1	1	65	8/8/17 8:39	tower	boulder	boulder	4.858	100	1	1	bl	copy	Feedback	UserTiming 	bl	1	C	4b	ANK8K5WTHJ61C	temp1	1	68	8/8/17 8:39	tower	boulder	boulder	5.081	100	1	1	bl	test	NoFeedback	UserTiming 	bl	2	C	4b	ANK8K5WTHJ61C	temp1	1	71	8/8/17 8:39	tower	boulder	boulder	6.946	100	1	1	bl	test	NoFeedback	UserTiming 	bl	3	C	4b	2	0ANK8K5WTHJ61C	temp1	1	49	8/8/17 8:37	officer	piano	piano	12.498	100	1	1	bl	copy	Feedback	UserTiming 	bl	1	C	3a	ANK8K5WTHJ61C	temp1	1	52	8/8/17 8:37	officer	piano	piano	5.969	100	1	1	bl	test	NoFeedback	UserTiming 	bl	2	C	3a	ANK8K5WTHJ61C	temp1	1	55	8/8/17 8:37	officer	piano	piano	4.667	100	1	1	bl	test	NoFeedback	UserTiming 	bl	3	C	3a	2	0ANK8K5WTHJ61C	temp1	1	24	8/8/17 8:33	village	prairie	prairie	5.725	100	1	1	bl	copy	Feedback	UserTiming 	bl	1	C	2a	ANK8K5WTHJ61C	temp1	1	27	8/8/17 8:33	village	prairie	prairie	13.115	100	1	1	bl	test	NoFeedback	UserTiming 	bl	2	C	2a	ANK8K5WTHJ61C	temp1	1	30	8/8/17 8:34	village	prairie	prairie	4.708	100	1	1	bl	test	NoFeedback	UserTiming 	bl	3	C	2a	2	0ANK8K5WTHJ61C	temp1	1	1	8/8/17 8:29	lark	strawberry	strawberry	6.106	100	1	1	bl	copy	Feedback	UserTiming 	bl	1	C	1a	ANK8K5WTHJ61C	temp1	1	4	8/8/17 8:30	lark	strawberry	strawberry	5.363	100	1	1	bl	test	NoFeedback	UserTiming 	bl	2	C	1a	ANK8K5WTHJ61C	temp1	1	7	8/8/17 8:30	lark	strawberry	strawberry	4.708	100	1	1	bl	test	NoFeedback	UserTiming 	bl	3	C	1a	2	0ANK8K5WTHJ61C	temp1	1	87	8/8/17 8:42	icebox	table	table	4.727	100	1	1	bl	copy	Feedback	UserTiming 	bl	1	E	6a	ANK8K5WTHJ61C	temp1	1	91	8/8/17 8:42	icebox	table	table	4.608	100	1	1	bl	test	NoFeedback	UserTiming 	bl	2	E	6a	ANK8K5WTHJ61C	temp1	1	99	8/8/17 8:43	icebox	table	table	4.745	100	1	1	bl	test	NoFeedback	UserTiming 	bl	3	E	6a	7	0ANK8K5WTHJ61C	temp1	1	76	8/8/17 8:40	musician	king	king	4.832	100	1	1	bl	copy	Feedback	UserTiming 	bl	1	E	5a	ANK8K5WTHJ61C	temp1	1	80	8/8/17 8:41	musician	king	king	4.717	100	1	1	bl	test	NoFeedback	UserTiming 	bl	2	E	5a	ANK8K5WTHJ61C	temp1	1	88	8/8/17 8:42	musician	king	king	4.727	100	1	1	bl	test	NoFeedback	UserTiming 	bl	3	E	5a	7	0ANK8K5WTHJ61C	temp1	1	58	8/8/17 8:38	mother	kiss	kiss	4.586	100	1	1	bl	copy	Feedback	UserTiming 	bl	1	E	4a	ANK8K5WTHJ61C	temp1	1	61	8/8/17 8:38	mother	kiss	kiss	4.701	100	1	1	bl	test	NoFeedback	UserTiming 	bl	2	E	4a	ANK8K5WTHJ61C	temp1	1	69	8/8/17 8:39	mother	kiss	kiss	4.769	100	1	1	bl	test	NoFeedback	UserTiming 	bl	3	E	4a	7	0ANK8K5WTHJ61C	temp1	1	3	8/8/17 8:30	thorn	cash	cash	5.795	100	1	1	bl	copy	Feedback	UserTiming 	bl	1	E	1a	ANK8K5WTHJ61C	temp1	1	8	8/8/17 8:30	thorn	cash	cash	4.681	100	1	1	bl	test	NoFeedback	UserTiming 	bl	2	E	1a	ANK8K5WTHJ61C	temp1	1	16	8/8/17 8:31	thorn	cash	saloon	6.221	20	0	0	bl	test	NoFeedback	UserTiming 	bl	3	E	1a	7	0ANK8K5WTHJ61C	temp1	1	90	8/8/17 8:42	coin	window	window	14.335	100	1	1	bl	copy	Feedback	UserTiming 	bl	1	G	6a	ANK8K5WTHJ61C	temp1	1	94	8/8/17 8:42	coin	window	window	4.883	100	1	1	bl	test	NoFeedback	UserTiming 	bl	2	G	6a	ANK8K5WTHJ61C	temp1	1	116	8/8/17 8:45	coin	window	window	4.627	100	1	1	bl	test	NoFeedback	UserTiming 	bl	3	G	6a	21	0ANK8K5WTHJ61C	temp1	1	81	8/8/17 8:41	hotel	fireplace	fireplace	4.669	100	1	1	bl	copy	Feedback	UserTiming 	bl	1	G	5a	ANK8K5WTHJ61C	temp1	1	85	8/8/17 8:41	hotel	fireplace	fireplace	4.771	100	1	1	bl	test	NoFeedback	UserTiming 	bl	2	G	5a	ANK8K5WTHJ61C	temp1	1	107	8/8/17 8:44	hotel	fireplace	fireplace	4.725	100	1	1	bl	test	NoFeedback	UserTiming 	bl	3	G	5a	21	0ANK8K5WTHJ61C	temp1	1	59	8/8/17 8:38	tank	flood	flood	4.862	100	1	1	bl	copy	Feedback	UserTiming 	bl	1	G	4a	ANK8K5WTHJ61C	temp1	1	62	8/8/17 8:38	tank	flood	flood	4.714	100	1	1	bl	test	NoFeedback	UserTiming 	bl	2	G	4a	ANK8K5WTHJ61C	temp1	1	84	8/8/17 8:41	tank	flood	flood	4.721	100	1	1	bl	test	NoFeedback	UserTiming 	bl	3	G	4a	21	0ANK8K5WTHJ61C	temp1	1	34	8/8/17 8:34	cottage	letter	letter	8.648	100	1	1	bl	copy	Feedback	UserTiming 	bl	1	G	2b	ANK8K5WTHJ61C	temp1	1	38	8/8/17 8:35	cottage	letter	letter	8.065	100	1	1	bl	test	NoFeedback	UserTiming 	bl	2	G	2b	ANK8K5WTHJ61C	temp1	1	60	8/8/17 8:38	cottage	letter	letter	5.354	100	1	1	bl	test	NoFeedback	UserTiming 	bl	3	G	2b	21	0ANK8K5WTHJ61C	temp1	1	40	8/8/17 8:35	oven	automobile	automobile	6.975	100	1	1	bl	copy	Feedback	UserTiming 	bl	1	I	5b	ANK8K5WTHJ61C	temp1	1	44	8/8/17 8:36	oven	automobile	automobile	10.866	100	1	1	bl	test	NoFeedback	UserTiming 	bl	2	I	5b	ANK8K5WTHJ61C	temp1	1	104	8/8/17 8:44	oven	automobile	monk	18.808	28.57142857	0	0	bl	test	NoFeedback	UserTiming 	bl	3	I	5b	59	0ANK8K5WTHJ61C	temp1	1	32	8/8/17 8:34	alligator	bottle	bottle	13.079	100	1	1	bl	copy	Feedback	UserTiming 	bl	1	I	4b	ANK8K5WTHJ61C	temp1	1	35	8/8/17 8:35	alligator	bottle	bottle	12.155	100	1	1	bl	test	NoFeedback	UserTiming 	bl	2	I	4b	ANK8K5WTHJ61C	temp1	1	95	8/8/17 8:43	alligator	bottle	bottle	5.145	100	1	1	bl	test	NoFeedback	UserTiming 	bl	3	I	4b	59	0ANK8K5WTHJ61C	temp1	1	21	8/8/17 8:32	wine	jelly	jelly	9.416	100	1	1	bl	copy	Feedback	UserTiming 	bl	1	I	3b	ANK8K5WTHJ61C	temp1	1	23	8/8/17 8:33	wine	jelly	jelly	4.618	100	1	1	bl	test	NoFeedback	UserTiming 	bl	2	I	3b	ANK8K5WTHJ61C	temp1	1	83	8/8/17 8:41	wine	jelly	jelly	4.675	100	1	1	bl	test	NoFeedback	UserTiming 	bl	3	I	3b	59	0ANK8K5WTHJ61C	temp1	1	20	8/8/17 8:32	camp	frog	frog	10.507	100	1	1	bl	copy	Feedback	UserTiming 	bl	1	I	2b	ANK8K5WTHJ61C	temp1	1	22	8/8/17 8:32	camp	frog	frog	5.034	100	1	1	bl	test	NoFeedback	UserTiming 	bl	2	I	2b	ANK8K5WTHJ61C	temp1	1	82	8/8/17 8:41	camp	frog	frog	16.37	100	1	1	bl	test	NoFeedback	UserTiming 	bl	3	I	2b	59	0ANK8K5WTHJ61C	temp1	1	43	8/8/17 8:36	chin	soil	soil	6.691	100	1	1	bl	copy	Feedback	UserTiming 	bl	1	J	6b	ANK8K5WTHJ61C	temp1	1	47	8/8/17 8:36	chin	soil	soil	5.029	100	1	1	bl	test	NoFeedback	UserTiming 	bl	2	J	6b	ANK8K5WTHJ61C	temp1	1	147	8/8/17 8:49	chin	soil	soil	4.852	100	1	1	bl	test	NoFeedback	UserTiming 	bl	3	J	6b	99	0ANK8K5WTHJ61C	temp1	1	41	8/8/17 8:35	footwear	acrobat	acrobat	5.6	100	1	1	bl	copy	Feedback	UserTiming 	bl	1	J	5b	ANK8K5WTHJ61C	temp1	1	45	8/8/17 8:36	footwear	acrobat	acrobat	4.656	100	1	1	bl	test	NoFeedback	UserTiming 	bl	2	J	5b	ANK8K5WTHJ61C	temp1	1	145	8/8/17 8:48	footwear	acrobat	acrobat	4.652	100	1	1	bl	test	NoFeedback	UserTiming 	bl	3	J	5b	99	0ANK8K5WTHJ61C	temp1	1	33	8/8/17 8:34	refrigerator	factory	factory	4.865	100	1	1	bl	copy	Feedback	UserTiming 	bl	1	J	4b	ANK8K5WTHJ61C	temp1	1	37	8/8/17 8:35	refrigerator	factory	factory	4.696	100	1	1	bl	test	NoFeedback	UserTiming 	bl	2	J	4b	ANK8K5WTHJ61C	temp1	1	137	8/8/17 8:47	refrigerator	factory	factory	20.145	100	1	1	bl	test	NoFeedback	UserTiming 	bl	3	J	4b	99	0ANK8K5WTHJ61C	temp1	1	15	8/8/17 8:31	harp	bird	bird	9.683	100	1	1	bl	copy	Feedback	UserTiming 	bl	1	J	3b	ANK8K5WTHJ61C	temp1	1	19	8/8/17 8:32	harp	bird	bird	10.632	100	1	1	bl	test	NoFeedback	UserTiming 	bl	2	J	3b	ANK8K5WTHJ61C	temp1	1	119	8/8/17 8:45	harp	bird	bird	5.308	100	1	1	bl	test	NoFeedback	UserTiming 	bl	3	J	3b	99	0AKLV0WIZZ356X	temp1	1	48	8/8/17 8:43	golf	building	building	2.888	100	1	1	bl	copy	Feedback	UserTiming 	bl	1	A	3a	AKLV0WIZZ356X	temp1	1	53	8/8/17 8:43	golf	building	building	5.195	100	1	1	bl	test	NoFeedback	UserTiming 	bl	2	A	3a	AKLV0WIZZ356X	temp1	1	54	8/8/17 8:43	golf	building	building	2.811	100	1	1	bl	test	NoFeedback	UserTiming 	bl	3	A	3a	0	0AKLV0WIZZ356X	temp1	1	2	8/8/17 8:39	trumpet	house	house	3.53	100	1	1	bl	copy	Feedback	UserTiming 	bl	1	A	1a	AKLV0WIZZ356X	temp1	1	5	8/8/17 8:39	trumpet	house	house	3.417	100	1	1	bl	test	NoFeedback	UserTiming 	bl	2	A	1a	AKLV0WIZZ356X	temp1	1	6	8/8/17 8:39	trumpet	house	house	2.217	100	1	1	bl	test	NoFeedback	UserTiming 	bl	3	A	1a	0	0AKLV0WIZZ356X	temp1	1	65	8/8/17 8:44	jury	butcher	butcher	4.547	100	1	1	bl	copy	Feedback	UserTiming 	bl	1	C	4b	AKLV0WIZZ356X	temp1	1	68	8/8/17 8:44	jury	butcher	butcher	3.031	100	1	1	bl	test	NoFeedback	UserTiming 	bl	2	C	4b	AKLV0WIZZ356X	temp1	1	71	8/8/17 8:44	jury	butcher	butcher	2.535	100	1	1	bl	test	NoFeedback	UserTiming 	bl	3	C	4b	2	0AKLV0WIZZ356X	temp1	1	24	8/8/17 8:41	tower	boulder	boulder	2.568	100	1	1	bl	copy	Feedback	UserTiming 	bl	1	C	2a	AKLV0WIZZ356X	temp1	1	27	8/8/17 8:41	tower	boulder	boulder	6.178	100	1	1	bl	test	NoFeedback	UserTiming 	bl	2	C	2a	AKLV0WIZZ356X	temp1	1	30	8/8/17 8:41	tower	boulder	boulder	2.458	100	1	1	bl	test	NoFeedback	UserTiming 	bl	3	C	2a	2	0AKLV0WIZZ356X	temp1	1	58	8/8/17 8:44	board	tobacco	tobacco	3.224	100	1	1	bl	copy	Feedback	UserTiming 	bl	1	E	4a	AKLV0WIZZ356X	temp1	1	61	8/8/17 8:44	board	tobacco	tabacco	4.298	85.71428571	1	0	bl	test	NoFeedback	UserTiming 	bl	2	E	4a	AKLV0WIZZ356X	temp1	1	69	8/8/17 8:44	board	tobacco	golf	4.775	18.18181818	0	0	bl	test	NoFeedback	UserTiming 	bl	3	E	4a	7	0AKLV0WIZZ356X	temp1	1	3	8/8/17 8:39	refrigerator	factory	factory	2.538	100	1	1	bl	copy	Feedback	UserTiming 	bl	1	E	1a	AKLV0WIZZ356X	temp1	1	8	8/8/17 8:39	refrigerator	factory	factory	2.408	100	1	1	bl	test	NoFeedback	UserTiming 	bl	2	E	1a	AKLV0WIZZ356X	temp1	1	16	8/8/17 8:40	refrigerator	factory	factory	3.901	100	1	1	bl	test	NoFeedback	UserTiming 	bl	3	E	1a	7	0AKLV0WIZZ356X	temp1	1	81	8/8/17 8:45	elephant	candy	candy	1.854	100	1	1	bl	copy	Feedback	UserTiming 	bl	1	G	5a	AKLV0WIZZ356X	temp1	1	85	8/8/17 8:45	elephant	candy	candy	2.164	100	1	1	bl	test	NoFeedback	UserTiming 	bl	2	G	5a	AKLV0WIZZ356X	temp1	1	107	8/8/17 8:47	elephant	candy	candy	2.238	100	1	1	bl	test	NoFeedback	UserTiming 	bl	3	G	5a	21	0AKLV0WIZZ356X	temp1	1	10	8/8/17 8:39	temple	flesh	flesh	4.957	100	1	1	bl	copy	Feedback	UserTiming 	bl	1	G	1b	AKLV0WIZZ356X	temp1	1	14	8/8/17 8:40	temple	flesh	flesh	20.325	100	1	1	bl	test	NoFeedback	UserTiming 	bl	2	G	1b	AKLV0WIZZ356X	temp1	1	36	8/8/17 8:42	temple	flesh	flesh	2.24	100	1	1	bl	test	NoFeedback	UserTiming 	bl	3	G	1b	21	0AKLV0WIZZ356X	temp1	1	20	8/8/17 8:40	chin	soil	soil	3.361	100	1	1	bl	copy	Feedback	UserTiming 	bl	1	I	2b	AKLV0WIZZ356X	temp1	1	22	8/8/17 8:41	chin	soil	foil	4.969	75	1	0	bl	test	NoFeedback	UserTiming 	bl	2	I	2b	AKLV0WIZZ356X	temp1	1	82	8/8/17 8:45	chin	soil	face	2.345	0	0	0	bl	test	NoFeedback	UserTiming 	bl	3	I	2b	59	0AKLV0WIZZ356X	temp1	1	9	8/8/17 8:39	locker	ticket	ticket	2.897	100	1	1	bl	copy	Feedback	UserTiming 	bl	1	J	1b	AKLV0WIZZ356X	temp1	1	12	8/8/17 8:39	locker	ticket	ticket	2.74	100	1	1	bl	test	NoFeedback	UserTiming 	bl	2	J	1b	AKLV0WIZZ356X	temp1	1	112	8/8/17 8:47	locker	ticket	school	4.097	16.66666667	0	0	bl	test	NoFeedback	UserTiming 	bl	3	J	1b	99	0AJRY9ALX8069Y	temp1	1	93	8/8/17 7:17	dust	vehicle	vehicle	5.096	100	1	1	bl	copy	Feedback	UserTiming 	bl	1	A	6a	AJRY9ALX8069Y	temp1	1	96	8/8/17 7:18	dust	vehicle	vehicle	4.581	100	1	1	bl	test	NoFeedback	UserTiming 	bl	2	A	6a	AJRY9ALX8069Y	temp1	1	97	8/8/17 7:18	dust	vehicle	vehicle	4.761	100	1	1	bl	test	NoFeedback	UserTiming 	bl	3	A	6a	0	0AJRY9ALX8069Y	temp1	1	70	8/8/17 7:15	icebox	table	table	4.998	100	1	1	bl	copy	Feedback	UserTiming 	bl	1	A	5a	AJRY9ALX8069Y	temp1	1	73	8/8/17 7:15	icebox	table	table	4.741	100	1	1	bl	test	NoFeedback	UserTiming 	bl	2	A	5a	AJRY9ALX8069Y	temp1	1	74	8/8/17 7:15	icebox	table	table	4.949	100	1	1	bl	test	NoFeedback	UserTiming 	bl	3	A	5a	0	0AJRY9ALX8069Y	temp1	1	63	8/8/17 7:14	thorn	cash	cash	5.767	100	1	1	bl	copy	Feedback	UserTiming 	bl	1	A	4b	AJRY9ALX8069Y	temp1	1	66	8/8/17 7:15	thorn	cash	cash	4.865	100	1	1	bl	test	NoFeedback	UserTiming 	bl	2	A	4b	AJRY9ALX8069Y	temp1	1	67	8/8/17 7:15	thorn	cash	cash	4.849	100	1	1	bl	test	NoFeedback	UserTiming 	bl	3	A	4b	0	0AJRY9ALX8069Y	temp1	1	48	8/8/17 7:12	tank	flood	flood	4.883	100	1	1	bl	copy	Feedback	UserTiming 	bl	1	A	3a	AJRY9ALX8069Y	temp1	1	53	8/8/17 7:13	tank	flood	flood	4.605	100	1	1	bl	test	NoFeedback	UserTiming 	bl	2	A	3a	AJRY9ALX8069Y	temp1	1	54	8/8/17 7:13	tank	flood	flood	4.596	100	1	1	bl	test	NoFeedback	UserTiming 	bl	3	A	3a	0	0AJRY9ALX8069Y	temp1	1	25	8/8/17 7:10	alligator	bottle	bottle	5.624	100	1	1	bl	copy	Feedback	UserTiming 	bl	1	A	2a	AJRY9ALX8069Y	temp1	1	28	8/8/17 7:10	alligator	bottle	bottle	4.691	100	1	1	bl	test	NoFeedback	UserTiming 	bl	2	A	2a	AJRY9ALX8069Y	temp1	1	29	8/8/17 7:10	alligator	bottle	bottle	4.62	100	1	1	bl	test	NoFeedback	UserTiming 	bl	3	A	2a	0	0AJRY9ALX8069Y	temp1	1	2	8/8/17 7:06	saloon	cradle	cradle	5.972	100	1	1	bl	copy	Feedback	UserTiming 	bl	1	A	1a	AJRY9ALX8069Y	temp1	1	5	8/8/17 7:06	saloon	cradle	cradle	4.868	100	1	1	bl	test	NoFeedback	UserTiming 	bl	2	A	1a	AJRY9ALX8069Y	temp1	1	6	8/8/17 7:06	saloon	cradle	cradle	8.934	100	1	1	bl	test	NoFeedback	UserTiming 	bl	3	A	1a	0	0AJRY9ALX8069Y	temp1	1	86	8/8/17 7:17	footwear	acrobat	acrobat	5.398	100	1	1	bl	copy	Feedback	UserTiming 	bl	1	C	6a	AJRY9ALX8069Y	temp1	1	89	8/8/17 7:17	footwear	acrobat	acrobat	6.468	100	1	1	bl	test	NoFeedback	UserTiming 	bl	2	C	6a	AJRY9ALX8069Y	temp1	1	92	8/8/17 7:17	footwear	acrobat	acrobat	4.669	100	1	1	bl	test	NoFeedback	UserTiming 	bl	3	C	6a	2	0AJRY9ALX8069Y	temp1	1	72	8/8/17 7:15	lark	strawberry	strawberry	7.959	100	1	1	bl	copy	Feedback	UserTiming 	bl	1	C	5a	AJRY9ALX8069Y	temp1	1	75	8/8/17 7:16	lark	strawberry	strawberry	6.189	100	1	1	bl	test	NoFeedback	UserTiming 	bl	2	C	5a	AJRY9ALX8069Y	temp1	1	78	8/8/17 7:16	lark	strawberry	strawberry	4.893	100	1	1	bl	test	NoFeedback	UserTiming 	bl	3	C	5a	2	0AJRY9ALX8069Y	temp1	1	65	8/8/17 7:14	wife	cord	cord	9.789	100	1	1	bl	copy	Feedback	UserTiming 	bl	1	C	4b	AJRY9ALX8069Y	temp1	1	68	8/8/17 7:15	wife	cord	cord	4.933	100	1	1	bl	test	NoFeedback	UserTiming 	bl	2	C	4b	AJRY9ALX8069Y	temp1	1	71	8/8/17 7:15	wife	cord	cord	4.642	100	1	1	bl	test	NoFeedback	UserTiming 	bl	3	C	4b	2	0AJRY9ALX8069Y	temp1	1	49	8/8/17 7:13	golf	building	building	5.44	100	1	1	bl	copy	Feedback	UserTiming 	bl	1	C	3a	AJRY9ALX8069Y	temp1	1	52	8/8/17 7:13	golf	building	building	4.701	100	1	1	bl	test	NoFeedback	UserTiming 	bl	2	C	3a	AJRY9ALX8069Y	temp1	1	55	8/8/17 7:13	golf	building	building	4.636	100	1	1	bl	test	NoFeedback	UserTiming 	bl	3	C	3a	2	0AJRY9ALX8069Y	temp1	1	24	8/8/17 7:09	jury	butcher	butcher	8.623	100	1	1	bl	copy	Feedback	UserTiming 	bl	1	C	2a	AJRY9ALX8069Y	temp1	1	27	8/8/17 7:10	jury	butcher	butcher	4.815	100	1	1	bl	test	NoFeedback	UserTiming 	bl	2	C	2a	AJRY9ALX8069Y	temp1	1	30	8/8/17 7:10	jury	butcher	butcher	4.671	100	1	1	bl	test	NoFeedback	UserTiming 	bl	3	C	2a	2	0AJRY9ALX8069Y	temp1	1	1	8/8/17 7:06	sunburn	fisherman	fisherman	8.262	100	1	1	bl	copy	Feedback	UserTiming 	bl	1	C	1a	AJRY9ALX8069Y	temp1	1	4	8/8/17 7:06	sunburn	fisherman	fisherman	5.194	100	1	1	bl	test	NoFeedback	UserTiming 	bl	2	C	1a	AJRY9ALX8069Y	temp1	1	7	8/8/17 7:07	sunburn	fisherman	fisherman	41.351	100	1	1	bl	test	NoFeedback	UserTiming 	bl	3	C	1a	2	0AJRY9ALX8069Y	temp1	1	87	8/8/17 7:17	village	prairie	prairie	5.025	100	1	1	bl	copy	Feedback	UserTiming 	bl	1	E	6a	AJRY9ALX8069Y	temp1	1	91	8/8/17 7:17	village	prairie	prairie	5.16	100	1	1	bl	test	NoFeedback	UserTiming 	bl	2	E	6a	AJRY9ALX8069Y	temp1	1	99	8/8/17 7:18	village	prairie	prairie	4.56	100	1	1	bl	test	NoFeedback	UserTiming 	bl	3	E	6a	7	0AJRY9ALX8069Y	temp1	1	76	8/8/17 7:16	refrigerator	factory	factory	5.216	100	1	1	bl	copy	Feedback	UserTiming 	bl	1	E	5a	AJRY9ALX8069Y	temp1	1	80	8/8/17 7:16	refrigerator	factory	factory	4.842	100	1	1	bl	test	NoFeedback	UserTiming 	bl	2	E	5a	AJRY9ALX8069Y	temp1	1	88	8/8/17 7:17	refrigerator	factory	factory	4.634	100	1	1	bl	test	NoFeedback	UserTiming 	bl	3	E	5a	7	0AJRY9ALX8069Y	temp1	1	58	8/8/17 7:14	tower	boulder	boulder	4.966	100	1	1	bl	copy	Feedback	UserTiming 	bl	1	E	4a	AJRY9ALX8069Y	temp1	1	61	8/8/17 7:14	tower	boulder	boulder	4.59	100	1	1	bl	test	NoFeedback	UserTiming 	bl	2	E	4a	AJRY9ALX8069Y	temp1	1	69	8/8/17 7:15	tower	boulder	boulder	6.74	100	1	1	bl	test	NoFeedback	UserTiming 	bl	3	E	4a	7	0AJRY9ALX8069Y	temp1	1	50	8/8/17 7:13	hotel	fireplace	fireplace	16.383	100	1	1	bl	copy	Feedback	UserTiming 	bl	1	E	3a	AJRY9ALX8069Y	temp1	1	56	8/8/17 7:13	hotel	fireplace	fireplace	4.664	100	1	1	bl	test	NoFeedback	UserTiming 	bl	2	E	3a	AJRY9ALX8069Y	temp1	1	64	8/8/17 7:14	hotel	fireplace	fireplace	5.095	100	1	1	bl	test	NoFeedback	UserTiming 	bl	3	E	3a	7	0AJRY9ALX8069Y	temp1	1	26	8/8/17 7:10	spray	apple	apple	7.89	100	1	1	bl	copy	Feedback	UserTiming 	bl	1	E	2a	AJRY9ALX8069Y	temp1	1	31	8/8/17 7:10	spray	apple	apple	4.715	100	1	1	bl	test	NoFeedback	UserTiming 	bl	2	E	2a	AJRY9ALX8069Y	temp1	1	39	8/8/17 7:12	spray	apple	apple	4.69	100	1	1	bl	test	NoFeedback	UserTiming 	bl	3	E	2a	7	0AJRY9ALX8069Y	temp1	1	3	8/8/17 7:06	avalanche	animal	animal	5.309	100	1	1	bl	copy	Feedback	UserTiming 	bl	1	E	1a	AJRY9ALX8069Y	temp1	1	8	8/8/17 7:07	avalanche	animal	animal	4.544	100	1	1	bl	test	NoFeedback	UserTiming 	bl	2	E	1a	AJRY9ALX8069Y	temp1	1	16	8/8/17 7:08	avalanche	animal	animal	4.817	100	1	1	bl	test	NoFeedback	UserTiming 	bl	3	E	1a	7	0AJRY9ALX8069Y	temp1	1	90	8/8/17 7:17	musician	king	king	5.819	100	1	1	bl	copy	Feedback	UserTiming 	bl	1	G	6a	AJRY9ALX8069Y	temp1	1	94	8/8/17 7:18	musician	king	king	4.671	100	1	1	bl	test	NoFeedback	UserTiming 	bl	2	G	6a	AJRY9ALX8069Y	temp1	1	116	8/8/17 7:20	musician	king	king	4.696	100	1	1	bl	test	NoFeedback	UserTiming 	bl	3	G	6a	21	0AJRY9ALX8069Y	temp1	1	81	8/8/17 7:16	sunset	pudding	pudding	9.19	100	1	1	bl	copy	Feedback	UserTiming 	bl	1	G	5a	AJRY9ALX8069Y	temp1	1	85	8/8/17 7:17	sunset	pudding	pudding	4.887	100	1	1	bl	test	NoFeedback	UserTiming 	bl	2	G	5a	AJRY9ALX8069Y	temp1	1	107	8/8/17 7:19	sunset	pudding	pudding	4.61	100	1	1	bl	test	NoFeedback	UserTiming 	bl	3	G	5a	21	0AJRY9ALX8069Y	temp1	1	59	8/8/17 7:14	mother	kiss	kiss	4.674	100	1	1	bl	copy	Feedback	UserTiming 	bl	1	G	4a	AJRY9ALX8069Y	temp1	1	62	8/8/17 7:14	mother	kiss	kiss	4.683	100	1	1	bl	test	NoFeedback	UserTiming 	bl	2	G	4a	AJRY9ALX8069Y	temp1	1	84	8/8/17 7:17	mother	kiss	kiss	4.567	100	1	1	bl	test	NoFeedback	UserTiming 	bl	3	G	4a	21	0AJRY9ALX8069Y	temp1	1	51	8/8/17 7:13	skillet	oats	oats	5.393	100	1	1	bl	copy	Feedback	UserTiming 	bl	1	G	3a	AJRY9ALX8069Y	temp1	1	57	8/8/17 7:14	skillet	oats	oats	8.486	100	1	1	bl	test	NoFeedback	UserTiming 	bl	2	G	3a	AJRY9ALX8069Y	temp1	1	79	8/8/17 7:16	skillet	oats	oats	4.555	100	1	1	bl	test	NoFeedback	UserTiming 	bl	3	G	3a	21	0AJRY9ALX8069Y	temp1	1	34	8/8/17 7:11	harp	bird	bird	5.638	100	1	1	bl	copy	Feedback	UserTiming 	bl	1	G	2b	AJRY9ALX8069Y	temp1	1	38	8/8/17 7:11	harp	bird	bird	4.603	100	1	1	bl	test	NoFeedback	UserTiming 	bl	2	G	2b	AJRY9ALX8069Y	temp1	1	60	8/8/17 7:14	harp	bird	bird	4.702	100	1	1	bl	test	NoFeedback	UserTiming 	bl	3	G	2b	21	0AJRY9ALX8069Y	temp1	1	10	8/8/17 7:07	board	tobacco	tobacco	10.103	100	1	1	bl	copy	Feedback	UserTiming 	bl	1	G	1b	AJRY9ALX8069Y	temp1	1	14	8/8/17 7:08	board	tobacco	tobacco	5.011	100	1	1	bl	test	NoFeedback	UserTiming 	bl	2	G	1b	AJRY9ALX8069Y	temp1	1	36	8/8/17 7:11	board	tobacco	tobacco	5.722	100	1	1	bl	test	NoFeedback	UserTiming 	bl	3	G	1b	21	0AJRY9ALX8069Y	temp1	1	42	8/8/17 7:12	door	insect	insect	6.534	100	1	1	bl	copy	Feedback	UserTiming 	bl	1	I	6b	AJRY9ALX8069Y	temp1	1	46	8/8/17 7:12	door	insect	insect	4.944	100	1	1	bl	test	NoFeedback	UserTiming 	bl	2	I	6b	AJRY9ALX8069Y	temp1	1	106	8/8/17 7:19	door	insect	insect	4.88	100	1	1	bl	test	NoFeedback	UserTiming 	bl	3	I	6b	59	0AJRY9ALX8069Y	temp1	1	40	8/8/17 7:12	microscope	ship	ship	5.848	100	1	1	bl	copy	Feedback	UserTiming 	bl	1	I	5b	AJRY9ALX8069Y	temp1	1	44	8/8/17 7:12	microscope	ship	ship	4.751	100	1	1	bl	test	NoFeedback	UserTiming 	bl	2	I	5b	AJRY9ALX8069Y	temp1	1	104	8/8/17 7:19	microscope	ship	ship	5.124	100	1	1	bl	test	NoFeedback	UserTiming 	bl	3	I	5b	59	0AJRY9ALX8069Y	temp1	1	32	8/8/17 7:10	earth	nursery	nursery	22.298	100	1	1	bl	copy	Feedback	UserTiming 	bl	1	I	4b	AJRY9ALX8069Y	temp1	1	35	8/8/17 7:11	earth	nursery	nursery	5.189	100	1	1	bl	test	NoFeedback	UserTiming 	bl	2	I	4b	AJRY9ALX8069Y	temp1	1	95	8/8/17 7:18	earth	nursery	nursery	4.703	100	1	1	bl	test	NoFeedback	UserTiming 	bl	3	I	4b	59	0AJRY9ALX8069Y	temp1	1	21	8/8/17 7:09	mule	infant	infant	5.76	100	1	1	bl	copy	Feedback	UserTiming 	bl	1	I	3b	AJRY9ALX8069Y	temp1	1	23	8/8/17 7:09	mule	infant	infant	5.489	100	1	1	bl	test	NoFeedback	UserTiming 	bl	2	I	3b	AJRY9ALX8069Y	temp1	1	83	8/8/17 7:16	mule	infant	infant	4.69	100	1	1	bl	test	NoFeedback	UserTiming 	bl	3	I	3b	59	0AJRY9ALX8069Y	temp1	1	20	8/8/17 7:09	cottage	letter	letter	9.701	100	1	1	bl	copy	Feedback	UserTiming 	bl	1	I	2b	AJRY9ALX8069Y	temp1	1	22	8/8/17 7:09	cottage	letter	letter	4.941	100	1	1	bl	test	NoFeedback	UserTiming 	bl	2	I	2b	AJRY9ALX8069Y	temp1	1	82	8/8/17 7:16	cottage	letter	letter	5.591	100	1	1	bl	test	NoFeedback	UserTiming 	bl	3	I	2b	59	0AJRY9ALX8069Y	temp1	1	11	8/8/17 7:07	swamp	macaroni	macaroni	5.276	100	1	1	bl	copy	Feedback	UserTiming 	bl	1	I	1b	AJRY9ALX8069Y	temp1	1	17	8/8/17 7:09	swamp	macaroni	macaroni	6.237	100	1	1	bl	test	NoFeedback	UserTiming 	bl	2	I	1b	AJRY9ALX8069Y	temp1	1	77	8/8/17 7:16	swamp	macaroni	macaroni	12.579	100	1	1	bl	test	NoFeedback	UserTiming 	bl	3	I	1b	59	0AJRY9ALX8069Y	temp1	1	43	8/8/17 7:12	coin	window	window	5.336	100	1	1	bl	copy	Feedback	UserTiming 	bl	1	J	6b	AJRY9ALX8069Y	temp1	1	47	8/8/17 7:12	coin	window	window	4.606	100	1	1	bl	test	NoFeedback	UserTiming 	bl	2	J	6b	AJRY9ALX8069Y	temp1	1	147	8/8/17 7:23	coin	window	window	4.515	100	1	1	bl	test	NoFeedback	UserTiming 	bl	3	J	6b	99	0AJRY9ALX8069Y	temp1	1	41	8/8/17 7:12	slipper	timepiece	timepiece	6.622	100	1	1	bl	copy	Feedback	UserTiming 	bl	1	J	5b	AJRY9ALX8069Y	temp1	1	45	8/8/17 7:12	slipper	timepiece	timepiece	5.267	100	1	1	bl	test	NoFeedback	UserTiming 	bl	2	J	5b	AJRY9ALX8069Y	temp1	1	145	8/8/17 7:22	slipper	timepiece	timepiece	4.899	100	1	1	bl	test	NoFeedback	UserTiming 	bl	3	J	5b	99	0AJRY9ALX8069Y	temp1	1	33	8/8/17 7:11	locker	ticket	ticket	21.918	100	1	1	bl	copy	Feedback	UserTiming 	bl	1	J	4b	AJRY9ALX8069Y	temp1	1	37	8/8/17 7:11	locker	ticket	ticket	5.777	100	1	1	bl	test	NoFeedback	UserTiming 	bl	2	J	4b	AJRY9ALX8069Y	temp1	1	137	8/8/17 7:22	locker	ticket	ticket	4.624	100	1	1	bl	test	NoFeedback	UserTiming 	bl	3	J	4b	99	0AJRY9ALX8069Y	temp1	1	15	8/8/17 7:08	camp	frog	frog	29.366	100	1	1	bl	copy	Feedback	UserTiming 	bl	1	J	3b	AJRY9ALX8069Y	temp1	1	19	8/8/17 7:09	camp	frog	frog	4.652	100	1	1	bl	test	NoFeedback	UserTiming 	bl	2	J	3b	AJRY9ALX8069Y	temp1	1	119	8/8/17 7:20	camp	frog	frog	4.572	100	1	1	bl	test	NoFeedback	UserTiming 	bl	3	J	3b	99	0AJRY9ALX8069Y	temp1	1	13	8/8/17 7:08	maiden	banker	banker	6.201	100	1	1	bl	copy	Feedback	UserTiming 	bl	1	J	2b	AJRY9ALX8069Y	temp1	1	18	8/8/17 7:09	maiden	banker	banker	5.647	100	1	1	bl	test	NoFeedback	UserTiming 	bl	2	J	2b	AJRY9ALX8069Y	temp1	1	118	8/8/17 7:20	maiden	banker	banker	6.209	100	1	1	bl	test	NoFeedback	UserTiming 	bl	3	J	2b	99	0AJRY9ALX8069Y	temp1	1	9	8/8/17 7:07	valley	alcohol	alcohol	6.402	100	1	1	bl	copy	Feedback	UserTiming 	bl	1	J	1b	AJRY9ALX8069Y	temp1	1	12	8/8/17 7:08	valley	alcohol	alcohol	4.887	100	1	1	bl	test	NoFeedback	UserTiming 	bl	2	J	1b	AJRY9ALX8069Y	temp1	1	112	8/8/17 7:19	valley	alcohol	alcohol	5.977	100	1	1	bl	test	NoFeedback	UserTiming 	bl	3	J	1b	99	0AJ3F5RR0P8LZR	temp1	1	93	8/8/17 8:47	wine	jelly	jelly	4.695	100	1	1	bl	copy	Feedback	UserTiming 	bl	1	A	6a	AJ3F5RR0P8LZR	temp1	1	96	8/8/17 8:48	wine	jelly	jelly	5.638	100	1	1	bl	test	NoFeedback	UserTiming 	bl	2	A	6a	AJ3F5RR0P8LZR	temp1	1	97	8/8/17 8:48	wine	jelly	jelly	2.373	100	1	1	bl	test	NoFeedback	UserTiming 	bl	3	A	6a	0	0AJ3F5RR0P8LZR	temp1	1	70	8/8/17 8:46	temple	flesh	flesh	4.844	100	1	1	bl	copy	Feedback	UserTiming 	bl	1	A	5a	AJ3F5RR0P8LZR	temp1	1	73	8/8/17 8:46	temple	flesh	flesh	2.478	100	1	1	bl	test	NoFeedback	UserTiming 	bl	2	A	5a	AJ3F5RR0P8LZR	temp1	1	74	8/8/17 8:46	temple	flesh	flesh	1.598	100	1	1	bl	test	NoFeedback	UserTiming 	bl	3	A	5a	0	0AJ3F5RR0P8LZR	temp1	1	63	8/8/17 8:45	tower	boulder	boulder	5.289	100	1	1	bl	copy	Feedback	UserTiming 	bl	1	A	4b	AJ3F5RR0P8LZR	temp1	1	66	8/8/17 8:45	tower	boulder	boulder	3.066	100	1	1	bl	test	NoFeedback	UserTiming 	bl	2	A	4b	AJ3F5RR0P8LZR	temp1	1	67	8/8/17 8:45	tower	boulder	boulder	2.531	100	1	1	bl	test	NoFeedback	UserTiming 	bl	3	A	4b	0	0AJ3F5RR0P8LZR	temp1	1	48	8/8/17 8:44	coin	window	window	4.326	100	1	1	bl	copy	Feedback	UserTiming 	bl	1	A	3a	AJ3F5RR0P8LZR	temp1	1	53	8/8/17 8:44	coin	window	window	2.623	100	1	1	bl	test	NoFeedback	UserTiming 	bl	2	A	3a	AJ3F5RR0P8LZR	temp1	1	54	8/8/17 8:44	coin	window	window	1.534	100	1	1	bl	test	NoFeedback	UserTiming 	bl	3	A	3a	0	0AJ3F5RR0P8LZR	temp1	1	2	8/8/17 8:40	swamp	macaroni	macaroni	4.165	100	1	1	bl	copy	Feedback	UserTiming 	bl	1	A	1a	AJ3F5RR0P8LZR	temp1	1	5	8/8/17 8:40	swamp	macaroni	macaroni	3.125	100	1	1	bl	test	NoFeedback	UserTiming 	bl	2	A	1a	AJ3F5RR0P8LZR	temp1	1	6	8/8/17 8:40	swamp	macaroni	macaroni	2.982	100	1	1	bl	test	NoFeedback	UserTiming 	bl	3	A	1a	0	0